#
# Results on Wed, 12 Jan 2022 18:42:17 GMT
# USER AGENT: Mozilla/5.0 (X11; CrOS x86_64 14092.66.0) AppleWebKit/537.36 (KHTML, like Gecko) Chrome/93.0.4577.95 Safari/537.36
# Design number was non-random = 116
#
# Columns below this comment are as follows:
# 1. Results reception time.
# 2. MD5 hash of participant's IP address.
# 3. Controller name.
# 4. Order number of item.
# 5. Inner element number.
# 6. Label.
# 7. Latin Square Group.
# 8. PennElementType.
# 9. PennElementName.
# 10. Parameter.
# 11. Value.
# 12. EventTime.
# 13. Comments.
1642012937,b3069969ec0de23df68696338a818120,PennController,2,0,consent,NULL,PennController,0,_Trial_,Start,1642012431282,NULL
1642012937,b3069969ec0de23df68696338a818120,PennController,2,0,consent,NULL,Controller-Form,Form,prolific,6026f16e1fcd140f67e637cf,1642012465296,Any addtional parameters were appended as additional columns
1642012937,b3069969ec0de23df68696338a818120,PennController,2,0,consent,NULL,Controller-Form,Form,consent,yes,1642012465296,Any addtional parameters were appended as additional columns
1642012937,b3069969ec0de23df68696338a818120,PennController,2,0,consent,NULL,PennController,0,_Trial_,End,1642012465306,NULL
1642012937,b3069969ec0de23df68696338a818120,PennController,3,0,intro1,NULL,PennController,1,_Trial_,Start,1642012465324,NULL
1642012937,b3069969ec0de23df68696338a818120,PennController,3,0,intro1,NULL,PennController,1,_Trial_,End,1642012530380,NULL
1642012937,b3069969ec0de23df68696338a818120,PennController,4,0,intro2,NULL,PennController,2,_Trial_,Start,1642012530384,NULL
1642012937,b3069969ec0de23df68696338a818120,PennController,4,0,intro2,NULL,PennController,2,_Trial_,End,1642012548959,NULL
# 13. Sentence.
# 14. List.
# 15. Item.
# 16. Comments.
1642012937,b3069969ec0de23df68696338a818120,PennController,17,0,PlauNPS,NULL,PennController,17,_Trial_,Start,1642012548964,The suspect showed that the file deserved further investigation during the murder trial.,i,1,NULL
1642012937,b3069969ec0de23df68696338a818120,PennController,17,0,PlauNPS,NULL,Scale,judgment,Choice,7,1642012555593,The suspect showed that the file deserved further investigation during the murder trial.,i,1,NULL
1642012937,b3069969ec0de23df68696338a818120,PennController,17,0,PlauNPS,NULL,PennController,17,_Trial_,End,1642012556620,The suspect showed that the file deserved further investigation during the murder trial.,i,1,NULL
1642012937,b3069969ec0de23df68696338a818120,PennController,26,0,PlauNPZ,NULL,PennController,26,_Trial_,Start,1642012556626,Once the new chef started%2C the restaurant separated mediocre cooks from gifted ones.,i,23,NULL
1642012937,b3069969ec0de23df68696338a818120,PennController,26,0,PlauNPZ,NULL,Scale,judgment,Choice,4,1642012569397,Once the new chef started%2C the restaurant separated mediocre cooks from gifted ones.,i,23,NULL
1642012937,b3069969ec0de23df68696338a818120,PennController,26,0,PlauNPZ,NULL,PennController,26,_Trial_,End,1642012571056,Once the new chef started%2C the restaurant separated mediocre cooks from gifted ones.,i,23,NULL
1642012937,b3069969ec0de23df68696338a818120,PennController,14,0,ImplauMVRR,NULL,PennController,14,_Trial_,Start,1642012571060,The yoga instructor who was offered the beard demanded immense physical effort from everyone.,i,17,NULL
1642012937,b3069969ec0de23df68696338a818120,PennController,14,0,ImplauMVRR,NULL,Scale,judgment,Choice,1,1642012576051,The yoga instructor who was offered the beard demanded immense physical effort from everyone.,i,17,NULL
1642012937,b3069969ec0de23df68696338a818120,PennController,14,0,ImplauMVRR,NULL,PennController,14,_Trial_,End,1642012577041,The yoga instructor who was offered the beard demanded immense physical effort from everyone.,i,17,NULL
1642012937,b3069969ec0de23df68696338a818120,PennController,7,0,ImplauNPZ,NULL,PennController,7,_Trial_,Start,1642012577046,After the technician called%2C the smile stopped working almost immediately to his surprise.,i,7,NULL
1642012937,b3069969ec0de23df68696338a818120,PennController,7,0,ImplauNPZ,NULL,Scale,judgment,Choice,1,1642012582218,After the technician called%2C the smile stopped working almost immediately to his surprise.,i,7,NULL
1642012937,b3069969ec0de23df68696338a818120,PennController,7,0,ImplauNPZ,NULL,PennController,7,_Trial_,End,1642012583513,After the technician called%2C the smile stopped working almost immediately to his surprise.,i,7,NULL
1642012937,b3069969ec0de23df68696338a818120,PennController,24,0,PlauMVRR,NULL,PennController,24,_Trial_,Start,1642012583518,The patient who was refused the treatment continued causing uncomfortable scenes in the ER.,i,19,NULL
1642012937,b3069969ec0de23df68696338a818120,PennController,24,0,PlauMVRR,NULL,Scale,judgment,Choice,5,1642012602701,The patient who was refused the treatment continued causing uncomfortable scenes in the ER.,i,19,NULL
1642012937,b3069969ec0de23df68696338a818120,PennController,24,0,PlauMVRR,NULL,PennController,24,_Trial_,End,1642012603921,The patient who was refused the treatment continued causing uncomfortable scenes in the ER.,i,19,NULL
1642012937,b3069969ec0de23df68696338a818120,PennController,25,0,PlauNPS,NULL,PennController,25,_Trial_,Start,1642012603925,The operator observed that the machine started working efficiently all of a sudden.,i,20,NULL
1642012937,b3069969ec0de23df68696338a818120,PennController,25,0,PlauNPS,NULL,Scale,judgment,Choice,7,1642012610672,The operator observed that the machine started working efficiently all of a sudden.,i,20,NULL
1642012937,b3069969ec0de23df68696338a818120,PennController,25,0,PlauNPS,NULL,PennController,25,_Trial_,End,1642012611742,The operator observed that the machine started working efficiently all of a sudden.,i,20,NULL
1642012937,b3069969ec0de23df68696338a818120,PennController,13,0,ImplauNPZ,NULL,PennController,13,_Trial_,Start,1642012611746,When the little girl attacked%2C the shirt remained relatively calm despite the sudden assault.,i,16,NULL
1642012937,b3069969ec0de23df68696338a818120,PennController,13,0,ImplauNPZ,NULL,Scale,judgment,Choice,1,1642012617228,When the little girl attacked%2C the shirt remained relatively calm despite the sudden assault.,i,16,NULL
1642012937,b3069969ec0de23df68696338a818120,PennController,13,0,ImplauNPZ,NULL,PennController,13,_Trial_,End,1642012618194,When the little girl attacked%2C the shirt remained relatively calm despite the sudden assault.,i,16,NULL
1642012937,b3069969ec0de23df68696338a818120,PennController,21,0,PlauMVRR,NULL,PennController,21,_Trial_,Start,1642012618199,The assistant manager who was assigned the training seemed unnecessarily demanding to new staff.,i,12,NULL
1642012937,b3069969ec0de23df68696338a818120,PennController,21,0,PlauMVRR,NULL,Scale,judgment,Choice,7,1642012632487,The assistant manager who was assigned the training seemed unnecessarily demanding to new staff.,i,12,NULL
1642012937,b3069969ec0de23df68696338a818120,PennController,21,0,PlauMVRR,NULL,PennController,21,_Trial_,End,1642012633642,The assistant manager who was assigned the training seemed unnecessarily demanding to new staff.,i,12,NULL
1642012937,b3069969ec0de23df68696338a818120,PennController,30,0,PluralNPZZ,NULL,PennController,30,_Trial_,Start,1642012633646,Even if the mother calls%2C her boys continue causing problems with the other kids on the playground.,i,19,NULL
1642012937,b3069969ec0de23df68696338a818120,PennController,30,0,PluralNPZZ,NULL,Scale,judgment,Choice,2,1642012646100,Even if the mother calls%2C her boys continue causing problems with the other kids on the playground.,i,19,NULL
1642012937,b3069969ec0de23df68696338a818120,PennController,30,0,PluralNPZZ,NULL,PennController,30,_Trial_,End,1642012646730,Even if the mother calls%2C her boys continue causing problems with the other kids on the playground.,i,19,NULL
1642012937,b3069969ec0de23df68696338a818120,PennController,27,0,PlauNPZ,NULL,PennController,27,_Trial_,Start,1642012646736,When the apprentice baker worked%2C the oven produced smaller cakes because he lacked experience.,i,24,NULL
1642012937,b3069969ec0de23df68696338a818120,PennController,27,0,PlauNPZ,NULL,Scale,judgment,Choice,7,1642012653714,When the apprentice baker worked%2C the oven produced smaller cakes because he lacked experience.,i,24,NULL
1642012937,b3069969ec0de23df68696338a818120,PennController,27,0,PlauNPZ,NULL,PennController,27,_Trial_,End,1642012654844,When the apprentice baker worked%2C the oven produced smaller cakes because he lacked experience.,i,24,NULL
1642012937,b3069969ec0de23df68696338a818120,PennController,5,0,ImplauNPS,NULL,PennController,5,_Trial_,Start,1642012654853,The new doctor demonstrated that the melon appeared increasingly likely to succeed.,i,5,NULL
1642012937,b3069969ec0de23df68696338a818120,PennController,5,0,ImplauNPS,NULL,Scale,judgment,Choice,1,1642012660586,The new doctor demonstrated that the melon appeared increasingly likely to succeed.,i,5,NULL
1642012937,b3069969ec0de23df68696338a818120,PennController,5,0,ImplauNPS,NULL,PennController,5,_Trial_,End,1642012661576,The new doctor demonstrated that the melon appeared increasingly likely to succeed.,i,5,NULL
1642012937,b3069969ec0de23df68696338a818120,PennController,34,0,SingNPZZ,NULL,PennController,34,_Trial_,Start,1642012661584,After the esteemed reviewer reads%2C the book gains more attention due to his glowing praise.,i,6,NULL
1642012937,b3069969ec0de23df68696338a818120,PennController,34,0,SingNPZZ,NULL,Scale,judgment,Choice,7,1642012670628,After the esteemed reviewer reads%2C the book gains more attention due to his glowing praise.,i,6,NULL
1642012937,b3069969ec0de23df68696338a818120,PennController,34,0,SingNPZZ,NULL,PennController,34,_Trial_,End,1642012671575,After the esteemed reviewer reads%2C the book gains more attention due to his glowing praise.,i,6,NULL
1642012937,b3069969ec0de23df68696338a818120,PennController,19,0,PlauNPS,NULL,PennController,19,_Trial_,Start,1642012671580,The guitarist knew that the song failed dramatically because of the tensions within the band.,i,9,NULL
1642012937,b3069969ec0de23df68696338a818120,PennController,19,0,PlauNPS,NULL,Scale,judgment,Choice,7,1642012676740,The guitarist knew that the song failed dramatically because of the tensions within the band.,i,9,NULL
1642012937,b3069969ec0de23df68696338a818120,PennController,19,0,PlauNPS,NULL,PennController,19,_Trial_,End,1642012677822,The guitarist knew that the song failed dramatically because of the tensions within the band.,i,9,NULL
1642012937,b3069969ec0de23df68696338a818120,PennController,28,0,PlauMVRR,NULL,PennController,28,_Trial_,Start,1642012677827,The woman who was brought the mail disappeared mysteriously after reading the bad news in it.,i,3,NULL
1642012937,b3069969ec0de23df68696338a818120,PennController,28,0,PlauMVRR,NULL,Scale,judgment,Choice,2,1642012685174,The woman who was brought the mail disappeared mysteriously after reading the bad news in it.,i,3,NULL
1642012937,b3069969ec0de23df68696338a818120,PennController,28,0,PlauMVRR,NULL,PennController,28,_Trial_,End,1642012686097,The woman who was brought the mail disappeared mysteriously after reading the bad news in it.,i,3,NULL
1642012937,b3069969ec0de23df68696338a818120,PennController,9,0,ImplauNPS,NULL,PennController,9,_Trial_,Start,1642012686101,The recent hire claimed that the hair prepared many students for careers in media.,i,11,NULL
1642012937,b3069969ec0de23df68696338a818120,PennController,9,0,ImplauNPS,NULL,Scale,judgment,Choice,1,1642012698107,The recent hire claimed that the hair prepared many students for careers in media.,i,11,NULL
1642012937,b3069969ec0de23df68696338a818120,PennController,9,0,ImplauNPS,NULL,PennController,9,_Trial_,End,1642012700596,The recent hire claimed that the hair prepared many students for careers in media.,i,11,NULL
1642012937,b3069969ec0de23df68696338a818120,PennController,10,0,ImplauMVRR,NULL,PennController,10,_Trial_,Start,1642012700607,The mayor who was sent the burger provided sufficient evidence that it was simply blackmail.,i,13,NULL
1642012937,b3069969ec0de23df68696338a818120,PennController,10,0,ImplauMVRR,NULL,Scale,judgment,Choice,1,1642012705991,The mayor who was sent the burger provided sufficient evidence that it was simply blackmail.,i,13,NULL
1642012937,b3069969ec0de23df68696338a818120,PennController,10,0,ImplauMVRR,NULL,PennController,10,_Trial_,End,1642012706815,The mayor who was sent the burger provided sufficient evidence that it was simply blackmail.,i,13,NULL
1642012937,b3069969ec0de23df68696338a818120,PennController,32,0,SingNPZZ,NULL,PennController,32,_Trial_,Start,1642012706823,If the supervisor changes%2C the schedule deserves further inspection by the rest of the staff.,i,1,NULL
1642012937,b3069969ec0de23df68696338a818120,PennController,32,0,SingNPZZ,NULL,Scale,judgment,Choice,7,1642012712988,If the supervisor changes%2C the schedule deserves further inspection by the rest of the staff.,i,1,NULL
1642012937,b3069969ec0de23df68696338a818120,PennController,32,0,SingNPZZ,NULL,PennController,32,_Trial_,End,1642012713937,If the supervisor changes%2C the schedule deserves further inspection by the rest of the staff.,i,1,NULL
1642012937,b3069969ec0de23df68696338a818120,PennController,18,0,PlauMVRR,NULL,PennController,18,_Trial_,Start,1642012713943,The boy who was fed the chicken stayed surprisingly happy despite having a mild allergic reaction.,i,4,NULL
1642012937,b3069969ec0de23df68696338a818120,PennController,18,0,PlauMVRR,NULL,Scale,judgment,Choice,5,1642012722015,The boy who was fed the chicken stayed surprisingly happy despite having a mild allergic reaction.,i,4,NULL
1642012937,b3069969ec0de23df68696338a818120,PennController,18,0,PlauMVRR,NULL,PennController,18,_Trial_,End,1642012722848,The boy who was fed the chicken stayed surprisingly happy despite having a mild allergic reaction.,i,4,NULL
1642012937,b3069969ec0de23df68696338a818120,PennController,12,0,ImplauNPS,NULL,PennController,12,_Trial_,Start,1642012722853,The engineer maintained that the anger required constant supervision from senior technicians.,i,15,NULL
1642012937,b3069969ec0de23df68696338a818120,PennController,12,0,ImplauNPS,NULL,Scale,judgment,Choice,1,1642012733158,The engineer maintained that the anger required constant supervision from senior technicians.,i,15,NULL
1642012937,b3069969ec0de23df68696338a818120,PennController,12,0,ImplauNPS,NULL,PennController,12,_Trial_,End,1642012734107,The engineer maintained that the anger required constant supervision from senior technicians.,i,15,NULL
1642012937,b3069969ec0de23df68696338a818120,PennController,20,0,PlauNPZ,NULL,PennController,20,_Trial_,Start,1642012734111,Although the player lost%2C the bonus remained essentially the same as in the original contract.,i,10,NULL
1642012937,b3069969ec0de23df68696338a818120,PennController,20,0,PlauNPZ,NULL,Scale,judgment,Choice,7,1642012740679,Although the player lost%2C the bonus remained essentially the same as in the original contract.,i,10,NULL
1642012937,b3069969ec0de23df68696338a818120,PennController,20,0,PlauNPZ,NULL,PennController,20,_Trial_,End,1642012741536,Although the player lost%2C the bonus remained essentially the same as in the original contract.,i,10,NULL
1642012937,b3069969ec0de23df68696338a818120,PennController,33,0,SingNPZZ,NULL,PennController,33,_Trial_,Start,1642012741541,Whenever the lawyer leaves%2C his client appears increasingly uncomfortable in the courtroom.,i,5,NULL
1642012937,b3069969ec0de23df68696338a818120,PennController,33,0,SingNPZZ,NULL,Scale,judgment,Choice,7,1642012745491,Whenever the lawyer leaves%2C his client appears increasingly uncomfortable in the courtroom.,i,5,NULL
1642012937,b3069969ec0de23df68696338a818120,PennController,33,0,SingNPZZ,NULL,PennController,33,_Trial_,End,1642012747114,Whenever the lawyer leaves%2C his client appears increasingly uncomfortable in the courtroom.,i,5,NULL
1642012937,b3069969ec0de23df68696338a818120,PennController,16,0,ImplauMVRR,NULL,PennController,16,_Trial_,Start,1642012747118,The contestant who was paid the tear became unavailable and suddenly terminated his contract.,i,22,NULL
1642012937,b3069969ec0de23df68696338a818120,PennController,16,0,ImplauMVRR,NULL,Scale,judgment,Choice,1,1642012757068,The contestant who was paid the tear became unavailable and suddenly terminated his contract.,i,22,NULL
1642012937,b3069969ec0de23df68696338a818120,PennController,16,0,ImplauMVRR,NULL,PennController,16,_Trial_,End,1642012758155,The contestant who was paid the tear became unavailable and suddenly terminated his contract.,i,22,NULL
1642012937,b3069969ec0de23df68696338a818120,PennController,23,0,PlauNPS,NULL,PennController,23,_Trial_,Start,1642012758160,The governor noticed that the contract received sweeping support across the entire state.,i,18,NULL
1642012937,b3069969ec0de23df68696338a818120,PennController,23,0,PlauNPS,NULL,Scale,judgment,Choice,5,1642012765664,The governor noticed that the contract received sweeping support across the entire state.,i,18,NULL
1642012937,b3069969ec0de23df68696338a818120,PennController,23,0,PlauNPS,NULL,PennController,23,_Trial_,End,1642012766434,The governor noticed that the contract received sweeping support across the entire state.,i,18,NULL
1642012937,b3069969ec0de23df68696338a818120,PennController,29,0,PluralNPZZ,NULL,PennController,29,_Trial_,Start,1642012766442,Whenever the reporter moves%2C the cameras require constant adjustment from the director.,i,15,NULL
1642012937,b3069969ec0de23df68696338a818120,PennController,29,0,PluralNPZZ,NULL,Scale,judgment,Choice,7,1642012770881,Whenever the reporter moves%2C the cameras require constant adjustment from the director.,i,15,NULL
1642012937,b3069969ec0de23df68696338a818120,PennController,29,0,PluralNPZZ,NULL,PennController,29,_Trial_,End,1642012771910,Whenever the reporter moves%2C the cameras require constant adjustment from the director.,i,15,NULL
1642012937,b3069969ec0de23df68696338a818120,PennController,6,0,ImplauMVRR,NULL,PennController,6,_Trial_,Start,1642012771915,The professor who was awarded the nap gained more attention from marine biologists.,i,6,NULL
1642012937,b3069969ec0de23df68696338a818120,PennController,6,0,ImplauMVRR,NULL,Scale,judgment,Choice,1,1642012781045,The professor who was awarded the nap gained more attention from marine biologists.,i,6,NULL
1642012937,b3069969ec0de23df68696338a818120,PennController,6,0,ImplauMVRR,NULL,PennController,6,_Trial_,End,1642012782503,The professor who was awarded the nap gained more attention from marine biologists.,i,6,NULL
1642012937,b3069969ec0de23df68696338a818120,PennController,8,0,ImplauNPZ,NULL,PennController,8,_Trial_,Start,1642012782507,Because the mechanic stopped%2C the crime needed several more hours before it could be fully repaired.,i,8,NULL
1642012937,b3069969ec0de23df68696338a818120,PennController,8,0,ImplauNPZ,NULL,Scale,judgment,Choice,1,1642012801280,Because the mechanic stopped%2C the crime needed several more hours before it could be fully repaired.,i,8,NULL
1642012937,b3069969ec0de23df68696338a818120,PennController,8,0,ImplauNPZ,NULL,PennController,8,_Trial_,End,1642012802726,Because the mechanic stopped%2C the crime needed several more hours before it could be fully repaired.,i,8,NULL
1642012937,b3069969ec0de23df68696338a818120,PennController,31,0,PluralNPZZ,NULL,PennController,31,_Trial_,Start,1642012802730,When the actress begins%2C the scenes fail dramatically despite the months she spent rehearsing.,i,9,NULL
1642012937,b3069969ec0de23df68696338a818120,PennController,31,0,PluralNPZZ,NULL,Scale,judgment,Choice,6,1642012809675,When the actress begins%2C the scenes fail dramatically despite the months she spent rehearsing.,i,9,NULL
1642012937,b3069969ec0de23df68696338a818120,PennController,31,0,PluralNPZZ,NULL,PennController,31,_Trial_,End,1642012810607,When the actress begins%2C the scenes fail dramatically despite the months she spent rehearsing.,i,9,NULL
1642012937,b3069969ec0de23df68696338a818120,PennController,15,0,ImplauNPZ,NULL,PennController,15,_Trial_,Start,1642012810611,Once the dancer began%2C the virus achieved incredible success for a show with a new performer.,i,21,NULL
1642012937,b3069969ec0de23df68696338a818120,PennController,15,0,ImplauNPZ,NULL,Scale,judgment,Choice,1,1642012815669,Once the dancer began%2C the virus achieved incredible success for a show with a new performer.,i,21,NULL
1642012937,b3069969ec0de23df68696338a818120,PennController,15,0,ImplauNPZ,NULL,PennController,15,_Trial_,End,1642012816587,Once the dancer began%2C the virus achieved incredible success for a show with a new performer.,i,21,NULL
1642012937,b3069969ec0de23df68696338a818120,PennController,11,0,ImplauNPS,NULL,PennController,11,_Trial_,Start,1642012816591,The basketball player mentioned that the stomach created another controversy in the NBA.,i,14,NULL
1642012937,b3069969ec0de23df68696338a818120,PennController,11,0,ImplauNPS,NULL,Scale,judgment,Choice,1,1642012824026,The basketball player mentioned that the stomach created another controversy in the NBA.,i,14,NULL
1642012937,b3069969ec0de23df68696338a818120,PennController,11,0,ImplauNPS,NULL,PennController,11,_Trial_,End,1642012824799,The basketball player mentioned that the stomach created another controversy in the NBA.,i,14,NULL
1642012937,b3069969ec0de23df68696338a818120,PennController,22,0,PlauNPZ,NULL,PennController,22,_Trial_,Start,1642012824805,After the corrupt politician signed%2C the bill received unwelcome attention from southern voters.,i,2,NULL
1642012937,b3069969ec0de23df68696338a818120,PennController,22,0,PlauNPZ,NULL,Scale,judgment,Choice,7,1642012831262,After the corrupt politician signed%2C the bill received unwelcome attention from southern voters.,i,2,NULL
1642012937,b3069969ec0de23df68696338a818120,PennController,22,0,PlauNPZ,NULL,PennController,22,_Trial_,End,1642012832447,After the corrupt politician signed%2C the bill received unwelcome attention from southern voters.,i,2,NULL
# 13. Comments.
1642012937,b3069969ec0de23df68696338a818120,PennController,35,0,debrief,NULL,PennController,3,_Trial_,Start,1642012832451,NULL
1642012937,b3069969ec0de23df68696338a818120,PennController,35,0,debrief,NULL,Controller-Form,Form,debrief1,words in sentences that had nothing to do with the context of the rest of the sentence.,1642012937141,Any addtional parameters were appended as additional columns
1642012937,b3069969ec0de23df68696338a818120,PennController,35,0,debrief,NULL,Controller-Form,Form,debrief2,no,1642012937141,Any addtional parameters were appended as additional columns
1642012937,b3069969ec0de23df68696338a818120,PennController,35,0,debrief,NULL,Controller-Form,Form,debrief3,the most boring thing I would see would be traffic and the most interesting thing I would see on the way would be the view around me.,1642012937141,Any addtional parameters were appended as additional columns
1642012937,b3069969ec0de23df68696338a818120,PennController,35,0,debrief,NULL,PennController,3,_Trial_,End,1642012937145,NULL
#
# Results on Wed, 12 Jan 2022 18:44:03 GMT
# USER AGENT: Mozilla/5.0 (Macintosh; Intel Mac OS X 10_15_7) AppleWebKit/537.36 (KHTML, like Gecko) Chrome/97.0.4692.71 Safari/537.36
# Design number was non-random = 119
#
# Columns below this comment are as follows:
# 1. Results reception time.
# 2. MD5 hash of participant's IP address.
# 3. Controller name.
# 4. Order number of item.
# 5. Inner element number.
# 6. Label.
# 7. Latin Square Group.
# 8. PennElementType.
# 9. PennElementName.
# 10. Parameter.
# 11. Value.
# 12. EventTime.
# 13. Comments.
1642013043,fccb16137f664f8b2cebe2a7e6c963a4,PennController,2,0,consent,NULL,PennController,0,_Trial_,Start,1642012664448,NULL
1642013043,fccb16137f664f8b2cebe2a7e6c963a4,PennController,2,0,consent,NULL,Controller-Form,Form,prolific,60fcfea6cc787f541ca9c4b0,1642012693204,Any addtional parameters were appended as additional columns
1642013043,fccb16137f664f8b2cebe2a7e6c963a4,PennController,2,0,consent,NULL,Controller-Form,Form,consent,yes,1642012693204,Any addtional parameters were appended as additional columns
1642013043,fccb16137f664f8b2cebe2a7e6c963a4,PennController,2,0,consent,NULL,PennController,0,_Trial_,End,1642012693207,NULL
1642013043,fccb16137f664f8b2cebe2a7e6c963a4,PennController,3,0,intro1,NULL,PennController,1,_Trial_,Start,1642012693212,NULL
1642013043,fccb16137f664f8b2cebe2a7e6c963a4,PennController,3,0,intro1,NULL,PennController,1,_Trial_,End,1642012734212,NULL
1642013043,fccb16137f664f8b2cebe2a7e6c963a4,PennController,4,0,intro2,NULL,PennController,2,_Trial_,Start,1642012734213,NULL
1642013043,fccb16137f664f8b2cebe2a7e6c963a4,PennController,4,0,intro2,NULL,PennController,2,_Trial_,End,1642012765655,NULL
# 13. Sentence.
# 14. List.
# 15. Item.
# 16. Comments.
1642013043,fccb16137f664f8b2cebe2a7e6c963a4,PennController,33,0,SingNPZZ,NULL,PennController,33,_Trial_,Start,1642012765658,Once the head surgeon begins%2C the operation achieves incredible results given the risks involved.,l,21,NULL
1642013043,fccb16137f664f8b2cebe2a7e6c963a4,PennController,33,0,SingNPZZ,NULL,Scale,judgment,Choice,5,1642012777444,Once the head surgeon begins%2C the operation achieves incredible results given the risks involved.,l,21,NULL
1642013043,fccb16137f664f8b2cebe2a7e6c963a4,PennController,33,0,SingNPZZ,NULL,PennController,33,_Trial_,End,1642012778691,Once the head surgeon begins%2C the operation achieves incredible results given the risks involved.,l,21,NULL
1642013043,fccb16137f664f8b2cebe2a7e6c963a4,PennController,21,0,PlauNPS,NULL,PennController,21,_Trial_,Start,1642012778693,The engineer maintained that the equipment required constant supervision from senior technicians.,l,15,NULL
1642013043,fccb16137f664f8b2cebe2a7e6c963a4,PennController,21,0,PlauNPS,NULL,Scale,judgment,Choice,7,1642012783161,The engineer maintained that the equipment required constant supervision from senior technicians.,l,15,NULL
1642013043,fccb16137f664f8b2cebe2a7e6c963a4,PennController,21,0,PlauNPS,NULL,PennController,21,_Trial_,End,1642012784147,The engineer maintained that the equipment required constant supervision from senior technicians.,l,15,NULL
1642013043,fccb16137f664f8b2cebe2a7e6c963a4,PennController,16,0,ImplauNPZ,NULL,PennController,16,_Trial_,Start,1642012784149,After the woman moved%2C the sauce disappeared mysteriously from the delivery system.,l,3,NULL
1642013043,fccb16137f664f8b2cebe2a7e6c963a4,PennController,16,0,ImplauNPZ,NULL,Scale,judgment,Choice,7,1642012788710,After the woman moved%2C the sauce disappeared mysteriously from the delivery system.,l,3,NULL
1642013043,fccb16137f664f8b2cebe2a7e6c963a4,PennController,16,0,ImplauNPZ,NULL,PennController,16,_Trial_,End,1642012789331,After the woman moved%2C the sauce disappeared mysteriously from the delivery system.,l,3,NULL
1642013043,fccb16137f664f8b2cebe2a7e6c963a4,PennController,5,0,ImplauNPS,NULL,PennController,5,_Trial_,Start,1642012789334,The suspect showed that the flavor deserved further investigation during the murder trial.,l,1,NULL
1642013043,fccb16137f664f8b2cebe2a7e6c963a4,PennController,5,0,ImplauNPS,NULL,Scale,judgment,Choice,3,1642012796821,The suspect showed that the flavor deserved further investigation during the murder trial.,l,1,NULL
1642013043,fccb16137f664f8b2cebe2a7e6c963a4,PennController,5,0,ImplauNPS,NULL,PennController,5,_Trial_,End,1642012797649,The suspect showed that the flavor deserved further investigation during the murder trial.,l,1,NULL
1642013043,fccb16137f664f8b2cebe2a7e6c963a4,PennController,29,0,PluralNPZZ,NULL,PennController,29,_Trial_,Start,1642012797651,If the supervisor changes%2C the schedules deserve further inspection by the rest of the staff.,l,1,NULL
1642013043,fccb16137f664f8b2cebe2a7e6c963a4,PennController,29,0,PluralNPZZ,NULL,Scale,judgment,Choice,3,1642012805338,If the supervisor changes%2C the schedules deserve further inspection by the rest of the staff.,l,1,NULL
1642013043,fccb16137f664f8b2cebe2a7e6c963a4,PennController,29,0,PluralNPZZ,NULL,PennController,29,_Trial_,End,1642012807453,If the supervisor changes%2C the schedules deserve further inspection by the rest of the staff.,l,1,NULL
1642013043,fccb16137f664f8b2cebe2a7e6c963a4,PennController,25,0,PlauNPS,NULL,PennController,25,_Trial_,Start,1642012807454,The dancer knew that the ballet achieved incredible success for a small local production.,l,21,NULL
1642013043,fccb16137f664f8b2cebe2a7e6c963a4,PennController,25,0,PlauNPS,NULL,Scale,judgment,Choice,6,1642012813168,The dancer knew that the ballet achieved incredible success for a small local production.,l,21,NULL
1642013043,fccb16137f664f8b2cebe2a7e6c963a4,PennController,25,0,PlauNPS,NULL,PennController,25,_Trial_,End,1642012813812,The dancer knew that the ballet achieved incredible success for a small local production.,l,21,NULL
1642013043,fccb16137f664f8b2cebe2a7e6c963a4,PennController,26,0,PlauNPZ,NULL,PennController,26,_Trial_,Start,1642012813813,After the contestant lost%2C the money became unavailable despite his previous three wins in a row.,l,22,NULL
1642013043,fccb16137f664f8b2cebe2a7e6c963a4,PennController,26,0,PlauNPZ,NULL,Scale,judgment,Choice,3,1642012819722,After the contestant lost%2C the money became unavailable despite his previous three wins in a row.,l,22,NULL
1642013043,fccb16137f664f8b2cebe2a7e6c963a4,PennController,26,0,PlauNPZ,NULL,PennController,26,_Trial_,End,1642012820374,After the contestant lost%2C the money became unavailable despite his previous three wins in a row.,l,22,NULL
1642013043,fccb16137f664f8b2cebe2a7e6c963a4,PennController,18,0,PlauMVRR,NULL,PennController,18,_Trial_,Start,1642012820375,The guitarist who was assigned the song failed dramatically because he never practiced enough.,l,9,NULL
1642013043,fccb16137f664f8b2cebe2a7e6c963a4,PennController,18,0,PlauMVRR,NULL,Scale,judgment,Choice,6,1642012831459,The guitarist who was assigned the song failed dramatically because he never practiced enough.,l,9,NULL
1642013043,fccb16137f664f8b2cebe2a7e6c963a4,PennController,18,0,PlauMVRR,NULL,PennController,18,_Trial_,End,1642012832032,The guitarist who was assigned the song failed dramatically because he never practiced enough.,l,9,NULL
1642013043,fccb16137f664f8b2cebe2a7e6c963a4,PennController,20,0,PlauNPS,NULL,PennController,20,_Trial_,Start,1642012832033,The basketball player mentioned that the contract created another controversy in the NBA.,l,14,NULL
1642013043,fccb16137f664f8b2cebe2a7e6c963a4,PennController,20,0,PlauNPS,NULL,Scale,judgment,Choice,6,1642012836652,The basketball player mentioned that the contract created another controversy in the NBA.,l,14,NULL
1642013043,fccb16137f664f8b2cebe2a7e6c963a4,PennController,20,0,PlauNPS,NULL,PennController,20,_Trial_,End,1642012837273,The basketball player mentioned that the contract created another controversy in the NBA.,l,14,NULL
1642013043,fccb16137f664f8b2cebe2a7e6c963a4,PennController,12,0,ImplauMVRR,NULL,PennController,12,_Trial_,Start,1642012837274,The mayor who was sent the burger provided sufficient evidence that it was simply blackmail.,l,13,NULL
1642013043,fccb16137f664f8b2cebe2a7e6c963a4,PennController,12,0,ImplauMVRR,NULL,Scale,judgment,Choice,2,1642012842416,The mayor who was sent the burger provided sufficient evidence that it was simply blackmail.,l,13,NULL
1642013043,fccb16137f664f8b2cebe2a7e6c963a4,PennController,12,0,ImplauMVRR,NULL,PennController,12,_Trial_,End,1642012843172,The mayor who was sent the burger provided sufficient evidence that it was simply blackmail.,l,13,NULL
1642013043,fccb16137f664f8b2cebe2a7e6c963a4,PennController,11,0,ImplauNPZ,NULL,PennController,11,_Trial_,Start,1642012843173,While the assistant manager worked%2C the tongue seemed unnecessarily demanding to him.,l,12,NULL
1642013043,fccb16137f664f8b2cebe2a7e6c963a4,PennController,11,0,ImplauNPZ,NULL,Scale,judgment,Choice,1,1642012847974,While the assistant manager worked%2C the tongue seemed unnecessarily demanding to him.,l,12,NULL
1642013043,fccb16137f664f8b2cebe2a7e6c963a4,PennController,11,0,ImplauNPZ,NULL,PennController,11,_Trial_,End,1642012848642,While the assistant manager worked%2C the tongue seemed unnecessarily demanding to him.,l,12,NULL
1642013043,fccb16137f664f8b2cebe2a7e6c963a4,PennController,13,0,ImplauMVRR,NULL,PennController,13,_Trial_,Start,1642012848643,The little girl who was fed the shirt remained relatively calm despite having asked for beef.,l,16,NULL
1642013043,fccb16137f664f8b2cebe2a7e6c963a4,PennController,13,0,ImplauMVRR,NULL,Scale,judgment,Choice,1,1642012853495,The little girl who was fed the shirt remained relatively calm despite having asked for beef.,l,16,NULL
1642013043,fccb16137f664f8b2cebe2a7e6c963a4,PennController,13,0,ImplauMVRR,NULL,PennController,13,_Trial_,End,1642012857135,The little girl who was fed the shirt remained relatively calm despite having asked for beef.,l,16,NULL
1642013043,fccb16137f664f8b2cebe2a7e6c963a4,PennController,10,0,ImplauNPS,NULL,PennController,10,_Trial_,Start,1642012857136,The player revealed that the cookie remained essentially the same as in the original contract.,l,10,NULL
1642013043,fccb16137f664f8b2cebe2a7e6c963a4,PennController,10,0,ImplauNPS,NULL,Scale,judgment,Choice,1,1642012862565,The player revealed that the cookie remained essentially the same as in the original contract.,l,10,NULL
1642013043,fccb16137f664f8b2cebe2a7e6c963a4,PennController,10,0,ImplauNPS,NULL,PennController,10,_Trial_,End,1642012863337,The player revealed that the cookie remained essentially the same as in the original contract.,l,10,NULL
1642013043,fccb16137f664f8b2cebe2a7e6c963a4,PennController,31,0,PluralNPZZ,NULL,PennController,31,_Trial_,Start,1642012863338,Whenever the lawyer leaves%2C his clients appear increasingly uncomfortable in the courtroom.,l,5,NULL
1642013043,fccb16137f664f8b2cebe2a7e6c963a4,PennController,31,0,PluralNPZZ,NULL,Scale,judgment,Choice,7,1642012866731,Whenever the lawyer leaves%2C his clients appear increasingly uncomfortable in the courtroom.,l,5,NULL
1642013043,fccb16137f664f8b2cebe2a7e6c963a4,PennController,31,0,PluralNPZZ,NULL,PennController,31,_Trial_,End,1642012867288,Whenever the lawyer leaves%2C his clients appear increasingly uncomfortable in the courtroom.,l,5,NULL
1642013043,fccb16137f664f8b2cebe2a7e6c963a4,PennController,19,0,PlauMVRR,NULL,PennController,19,_Trial_,Start,1642012867289,The recent hire who was offered the job prepared many students for careers in media.,l,11,NULL
1642013043,fccb16137f664f8b2cebe2a7e6c963a4,PennController,19,0,PlauMVRR,NULL,Scale,judgment,Choice,3,1642012874182,The recent hire who was offered the job prepared many students for careers in media.,l,11,NULL
1642013043,fccb16137f664f8b2cebe2a7e6c963a4,PennController,19,0,PlauMVRR,NULL,PennController,19,_Trial_,End,1642012874755,The recent hire who was offered the job prepared many students for careers in media.,l,11,NULL
1642013043,fccb16137f664f8b2cebe2a7e6c963a4,PennController,7,0,ImplauNPS,NULL,PennController,7,_Trial_,Start,1642012874756,The new doctor demonstrated that the melon appeared increasingly likely to succeed.,l,5,NULL
1642013043,fccb16137f664f8b2cebe2a7e6c963a4,PennController,7,0,ImplauNPS,NULL,Scale,judgment,Choice,1,1642012879137,The new doctor demonstrated that the melon appeared increasingly likely to succeed.,l,5,NULL
1642013043,fccb16137f664f8b2cebe2a7e6c963a4,PennController,7,0,ImplauNPS,NULL,PennController,7,_Trial_,End,1642012879885,The new doctor demonstrated that the melon appeared increasingly likely to succeed.,l,5,NULL
1642013043,fccb16137f664f8b2cebe2a7e6c963a4,PennController,23,0,PlauNPZ,NULL,PennController,23,_Trial_,Start,1642012879886,Before the patient called%2C the treatment continued causing uncomfortable side effects like nausea.,l,19,NULL
1642013043,fccb16137f664f8b2cebe2a7e6c963a4,PennController,23,0,PlauNPZ,NULL,Scale,judgment,Choice,7,1642012883553,Before the patient called%2C the treatment continued causing uncomfortable side effects like nausea.,l,19,NULL
1642013043,fccb16137f664f8b2cebe2a7e6c963a4,PennController,23,0,PlauNPZ,NULL,PennController,23,_Trial_,End,1642012884182,Before the patient called%2C the treatment continued causing uncomfortable side effects like nausea.,l,19,NULL
1642013043,fccb16137f664f8b2cebe2a7e6c963a4,PennController,30,0,PluralNPZZ,NULL,PennController,30,_Trial_,Start,1642012884184,After the diplomat signs%2C the agreements create another border conflict as a side effect.,l,14,NULL
1642013043,fccb16137f664f8b2cebe2a7e6c963a4,PennController,30,0,PluralNPZZ,NULL,Scale,judgment,Choice,3,1642012891821,After the diplomat signs%2C the agreements create another border conflict as a side effect.,l,14,NULL
1642013043,fccb16137f664f8b2cebe2a7e6c963a4,PennController,30,0,PluralNPZZ,NULL,PennController,30,_Trial_,End,1642012892457,After the diplomat signs%2C the agreements create another border conflict as a side effect.,l,14,NULL
1642013043,fccb16137f664f8b2cebe2a7e6c963a4,PennController,28,0,PlauNPS,NULL,PennController,28,_Trial_,Start,1642012892458,The apprentice baker discovered that the oven produced smaller cakes because it heated too fast.,l,24,NULL
1642013043,fccb16137f664f8b2cebe2a7e6c963a4,PennController,28,0,PlauNPS,NULL,Scale,judgment,Choice,3,1642012898788,The apprentice baker discovered that the oven produced smaller cakes because it heated too fast.,l,24,NULL
1642013043,fccb16137f664f8b2cebe2a7e6c963a4,PennController,28,0,PlauNPS,NULL,PennController,28,_Trial_,End,1642012899265,The apprentice baker discovered that the oven produced smaller cakes because it heated too fast.,l,24,NULL
1642013043,fccb16137f664f8b2cebe2a7e6c963a4,PennController,15,0,ImplauMVRR,NULL,PennController,15,_Trial_,Start,1642012899266,The corrupt politician who was handed the awareness received unwelcome attention from southern voters.,l,2,NULL
1642013043,fccb16137f664f8b2cebe2a7e6c963a4,PennController,15,0,ImplauMVRR,NULL,Scale,judgment,Choice,2,1642012906800,The corrupt politician who was handed the awareness received unwelcome attention from southern voters.,l,2,NULL
1642013043,fccb16137f664f8b2cebe2a7e6c963a4,PennController,15,0,ImplauMVRR,NULL,PennController,15,_Trial_,End,1642012907397,The corrupt politician who was handed the awareness received unwelcome attention from southern voters.,l,2,NULL
1642013043,fccb16137f664f8b2cebe2a7e6c963a4,PennController,27,0,PlauNPZ,NULL,PennController,27,_Trial_,Start,1642012907398,Once the new chef started%2C the restaurant separated mediocre cooks from gifted ones.,l,23,NULL
1642013043,fccb16137f664f8b2cebe2a7e6c963a4,PennController,27,0,PlauNPZ,NULL,Scale,judgment,Choice,7,1642012910846,Once the new chef started%2C the restaurant separated mediocre cooks from gifted ones.,l,23,NULL
1642013043,fccb16137f664f8b2cebe2a7e6c963a4,PennController,27,0,PlauNPZ,NULL,PennController,27,_Trial_,End,1642012911357,Once the new chef started%2C the restaurant separated mediocre cooks from gifted ones.,l,23,NULL
1642013043,fccb16137f664f8b2cebe2a7e6c963a4,PennController,17,0,PlauMVRR,NULL,PennController,17,_Trial_,Start,1642012911358,The professor who was awarded the grant gained more attention from marine biologists.,l,6,NULL
1642013043,fccb16137f664f8b2cebe2a7e6c963a4,PennController,17,0,PlauMVRR,NULL,Scale,judgment,Choice,7,1642012917184,The professor who was awarded the grant gained more attention from marine biologists.,l,6,NULL
1642013043,fccb16137f664f8b2cebe2a7e6c963a4,PennController,17,0,PlauMVRR,NULL,PennController,17,_Trial_,End,1642012917790,The professor who was awarded the grant gained more attention from marine biologists.,l,6,NULL
1642013043,fccb16137f664f8b2cebe2a7e6c963a4,PennController,6,0,ImplauNPZ,NULL,PennController,6,_Trial_,Start,1642012917791,Although the boy attacked%2C the city stayed surprisingly happy as if nothing happened.,l,4,NULL
1642013043,fccb16137f664f8b2cebe2a7e6c963a4,PennController,6,0,ImplauNPZ,NULL,Scale,judgment,Choice,2,1642012926134,Although the boy attacked%2C the city stayed surprisingly happy as if nothing happened.,l,4,NULL
1642013043,fccb16137f664f8b2cebe2a7e6c963a4,PennController,6,0,ImplauNPZ,NULL,PennController,6,_Trial_,End,1642012926731,Although the boy attacked%2C the city stayed surprisingly happy as if nothing happened.,l,4,NULL
1642013043,fccb16137f664f8b2cebe2a7e6c963a4,PennController,34,0,SingNPZZ,NULL,PennController,34,_Trial_,Start,1642012926732,However hard the scientist works%2C his experiment produces smaller amounts of alcohol than expected.,l,24,NULL
1642013043,fccb16137f664f8b2cebe2a7e6c963a4,PennController,34,0,SingNPZZ,NULL,Scale,judgment,Choice,6,1642012931452,However hard the scientist works%2C his experiment produces smaller amounts of alcohol than expected.,l,24,NULL
1642013043,fccb16137f664f8b2cebe2a7e6c963a4,PennController,34,0,SingNPZZ,NULL,PennController,34,_Trial_,End,1642012932503,However hard the scientist works%2C his experiment produces smaller amounts of alcohol than expected.,l,24,NULL
1642013043,fccb16137f664f8b2cebe2a7e6c963a4,PennController,24,0,PlauMVRR,NULL,PennController,24,_Trial_,Start,1642012932504,The operator who was brought the machine started working efficiently with the added automation.,l,20,NULL
1642013043,fccb16137f664f8b2cebe2a7e6c963a4,PennController,24,0,PlauMVRR,NULL,Scale,judgment,Choice,6,1642012937423,The operator who was brought the machine started working efficiently with the added automation.,l,20,NULL
1642013043,fccb16137f664f8b2cebe2a7e6c963a4,PennController,24,0,PlauMVRR,NULL,PennController,24,_Trial_,End,1642012938059,The operator who was brought the machine started working efficiently with the added automation.,l,20,NULL
1642013043,fccb16137f664f8b2cebe2a7e6c963a4,PennController,14,0,ImplauNPZ,NULL,PennController,14,_Trial_,Start,1642012938060,Before the yoga instructor left%2C the beard demanded immense physical effort from everyone.,l,17,NULL
1642013043,fccb16137f664f8b2cebe2a7e6c963a4,PennController,14,0,ImplauNPZ,NULL,Scale,judgment,Choice,1,1642012943510,Before the yoga instructor left%2C the beard demanded immense physical effort from everyone.,l,17,NULL
1642013043,fccb16137f664f8b2cebe2a7e6c963a4,PennController,14,0,ImplauNPZ,NULL,PennController,14,_Trial_,End,1642012944655,Before the yoga instructor left%2C the beard demanded immense physical effort from everyone.,l,17,NULL
1642013043,fccb16137f664f8b2cebe2a7e6c963a4,PennController,8,0,ImplauMVRR,NULL,PennController,8,_Trial_,Start,1642012944656,The technician who was refused the smile stopped working almost immediately after the argument.,l,7,NULL
1642013043,fccb16137f664f8b2cebe2a7e6c963a4,PennController,8,0,ImplauMVRR,NULL,Scale,judgment,Choice,1,1642012949766,The technician who was refused the smile stopped working almost immediately after the argument.,l,7,NULL
1642013043,fccb16137f664f8b2cebe2a7e6c963a4,PennController,8,0,ImplauMVRR,NULL,PennController,8,_Trial_,End,1642012950474,The technician who was refused the smile stopped working almost immediately after the argument.,l,7,NULL
1642013043,fccb16137f664f8b2cebe2a7e6c963a4,PennController,22,0,PlauNPZ,NULL,PennController,22,_Trial_,Start,1642012950475,While the governor read%2C the contract received sweeping support from the audience at the rally.,l,18,NULL
1642013043,fccb16137f664f8b2cebe2a7e6c963a4,PennController,22,0,PlauNPZ,NULL,Scale,judgment,Choice,7,1642012954561,While the governor read%2C the contract received sweeping support from the audience at the rally.,l,18,NULL
1642013043,fccb16137f664f8b2cebe2a7e6c963a4,PennController,22,0,PlauNPZ,NULL,PennController,22,_Trial_,End,1642012955245,While the governor read%2C the contract received sweeping support from the audience at the rally.,l,18,NULL
1642013043,fccb16137f664f8b2cebe2a7e6c963a4,PennController,9,0,ImplauNPS,NULL,PennController,9,_Trial_,Start,1642012955246,The mechanic observed that the crime needed several more hours to be repaired.,l,8,NULL
1642013043,fccb16137f664f8b2cebe2a7e6c963a4,PennController,9,0,ImplauNPS,NULL,Scale,judgment,Choice,1,1642012960136,The mechanic observed that the crime needed several more hours to be repaired.,l,8,NULL
1642013043,fccb16137f664f8b2cebe2a7e6c963a4,PennController,9,0,ImplauNPS,NULL,PennController,9,_Trial_,End,1642012960677,The mechanic observed that the crime needed several more hours to be repaired.,l,8,NULL
1642013043,fccb16137f664f8b2cebe2a7e6c963a4,PennController,32,0,SingNPZZ,NULL,PennController,32,_Trial_,Start,1642012960678,After the tutor stops%2C the student starts working independently on the questions.,l,20,NULL
1642013043,fccb16137f664f8b2cebe2a7e6c963a4,PennController,32,0,SingNPZZ,NULL,Scale,judgment,Choice,7,1642012964840,After the tutor stops%2C the student starts working independently on the questions.,l,20,NULL
1642013043,fccb16137f664f8b2cebe2a7e6c963a4,PennController,32,0,SingNPZZ,NULL,PennController,32,_Trial_,End,1642012965374,After the tutor stops%2C the student starts working independently on the questions.,l,20,NULL
# 13. Comments.
1642013043,fccb16137f664f8b2cebe2a7e6c963a4,PennController,35,0,debrief,NULL,PennController,3,_Trial_,Start,1642012965375,NULL
1642013043,fccb16137f664f8b2cebe2a7e6c963a4,PennController,35,0,debrief,NULL,Controller-Form,Form,debrief1,They were worded in a confusing way and lacked punctuation at times which was unexpected. ,1642013042826,Any addtional parameters were appended as additional columns
1642013043,fccb16137f664f8b2cebe2a7e6c963a4,PennController,35,0,debrief,NULL,Controller-Form,Form,debrief2,Yes%2C sometimes it was unclear if the sentence made sense or if I was just reading it wrong.,1642013042826,Any addtional parameters were appended as additional columns
1642013043,fccb16137f664f8b2cebe2a7e6c963a4,PennController,35,0,debrief,NULL,Controller-Form,Form,debrief3,The most boring thing would probably be cars waiting in traffic and the most interesting thing would be the people within the cars. ,1642013042826,Any addtional parameters were appended as additional columns
1642013043,fccb16137f664f8b2cebe2a7e6c963a4,PennController,35,0,debrief,NULL,PennController,3,_Trial_,End,1642013042828,NULL
#
# Results on Wed, 12 Jan 2022 18:44:59 GMT
# USER AGENT: Mozilla/5.0 (Windows NT 10.0; Win64; x64; rv:95.0) Gecko/20100101 Firefox/95.0
# Design number was non-random = 118
#
# Columns below this comment are as follows:
# 1. Results reception time.
# 2. MD5 hash of participant's IP address.
# 3. Controller name.
# 4. Order number of item.
# 5. Inner element number.
# 6. Label.
# 7. Latin Square Group.
# 8. PennElementType.
# 9. PennElementName.
# 10. Parameter.
# 11. Value.
# 12. EventTime.
# 13. Comments.
1642013099,31ec93054e68774b041ae9b38c49d255,PennController,2,0,consent,NULL,PennController,0,_Trial_,Start,1642012511407,NULL
1642013099,31ec93054e68774b041ae9b38c49d255,PennController,2,0,consent,NULL,Controller-Form,Form,prolific,6101c737841fde127af30c99,1642012549269,Any addtional parameters were appended as additional columns
1642013099,31ec93054e68774b041ae9b38c49d255,PennController,2,0,consent,NULL,Controller-Form,Form,consent,yes,1642012549269,Any addtional parameters were appended as additional columns
1642013099,31ec93054e68774b041ae9b38c49d255,PennController,2,0,consent,NULL,PennController,0,_Trial_,End,1642012549271,NULL
1642013099,31ec93054e68774b041ae9b38c49d255,PennController,3,0,intro1,NULL,PennController,1,_Trial_,Start,1642012549275,NULL
1642013099,31ec93054e68774b041ae9b38c49d255,PennController,3,0,intro1,NULL,PennController,1,_Trial_,End,1642012596487,NULL
1642013099,31ec93054e68774b041ae9b38c49d255,PennController,4,0,intro2,NULL,PennController,2,_Trial_,Start,1642012596489,NULL
1642013099,31ec93054e68774b041ae9b38c49d255,PennController,4,0,intro2,NULL,PennController,2,_Trial_,End,1642012626453,NULL
# 13. Sentence.
# 14. List.
# 15. Item.
# 16. Comments.
1642013099,31ec93054e68774b041ae9b38c49d255,PennController,23,0,PlauNPZ,NULL,PennController,23,_Trial_,Start,1642012626455,Before the patient called%2C the treatment continued causing uncomfortable side effects like nausea.,k,19,NULL
1642013099,31ec93054e68774b041ae9b38c49d255,PennController,23,0,PlauNPZ,NULL,Scale,judgment,Choice,6,1642012647074,Before the patient called%2C the treatment continued causing uncomfortable side effects like nausea.,k,19,NULL
1642013099,31ec93054e68774b041ae9b38c49d255,PennController,23,0,PlauNPZ,NULL,PennController,23,_Trial_,End,1642012647912,Before the patient called%2C the treatment continued causing uncomfortable side effects like nausea.,k,19,NULL
1642013099,31ec93054e68774b041ae9b38c49d255,PennController,25,0,PlauMVRR,NULL,PennController,25,_Trial_,Start,1642012647913,The contestant who was paid the money became unavailable and suddenly terminated his contract.,k,22,NULL
1642013099,31ec93054e68774b041ae9b38c49d255,PennController,25,0,PlauMVRR,NULL,Scale,judgment,Choice,3,1642012668275,The contestant who was paid the money became unavailable and suddenly terminated his contract.,k,22,NULL
1642013099,31ec93054e68774b041ae9b38c49d255,PennController,25,0,PlauMVRR,NULL,PennController,25,_Trial_,End,1642012668920,The contestant who was paid the money became unavailable and suddenly terminated his contract.,k,22,NULL
1642013099,31ec93054e68774b041ae9b38c49d255,PennController,19,0,PlauNPS,NULL,PennController,19,_Trial_,Start,1642012668921,The mayor showed that the document provided sufficient evidence to prove her innocence.,k,13,NULL
1642013099,31ec93054e68774b041ae9b38c49d255,PennController,19,0,PlauNPS,NULL,Scale,judgment,Choice,1,1642012677580,The mayor showed that the document provided sufficient evidence to prove her innocence.,k,13,NULL
1642013099,31ec93054e68774b041ae9b38c49d255,PennController,19,0,PlauNPS,NULL,PennController,19,_Trial_,End,1642012678458,The mayor showed that the document provided sufficient evidence to prove her innocence.,k,13,NULL
1642013099,31ec93054e68774b041ae9b38c49d255,PennController,32,0,SingNPZZ,NULL,PennController,32,_Trial_,Start,1642012678459,After the worst team loses%2C the tournament remains essentially the same for the rest of the year.,k,10,NULL
1642013099,31ec93054e68774b041ae9b38c49d255,PennController,32,0,SingNPZZ,NULL,Scale,judgment,Choice,2,1642012688138,After the worst team loses%2C the tournament remains essentially the same for the rest of the year.,k,10,NULL
1642013099,31ec93054e68774b041ae9b38c49d255,PennController,32,0,SingNPZZ,NULL,PennController,32,_Trial_,End,1642012688824,After the worst team loses%2C the tournament remains essentially the same for the rest of the year.,k,10,NULL
1642013099,31ec93054e68774b041ae9b38c49d255,PennController,6,0,ImplauNPS,NULL,PennController,6,_Trial_,Start,1642012688824,The new doctor demonstrated that the melon appeared increasingly likely to succeed.,k,5,NULL
1642013099,31ec93054e68774b041ae9b38c49d255,PennController,6,0,ImplauNPS,NULL,Scale,judgment,Choice,7,1642012694475,The new doctor demonstrated that the melon appeared increasingly likely to succeed.,k,5,NULL
1642013099,31ec93054e68774b041ae9b38c49d255,PennController,6,0,ImplauNPS,NULL,PennController,6,_Trial_,End,1642012697640,The new doctor demonstrated that the melon appeared increasingly likely to succeed.,k,5,NULL
1642013099,31ec93054e68774b041ae9b38c49d255,PennController,12,0,ImplauNPZ,NULL,PennController,12,_Trial_,Start,1642012697642,After the corrupt politician signed%2C the awareness received unwelcome attention from southern voters.,k,2,NULL
1642013099,31ec93054e68774b041ae9b38c49d255,PennController,12,0,ImplauNPZ,NULL,Scale,judgment,Choice,7,1642012704867,After the corrupt politician signed%2C the awareness received unwelcome attention from southern voters.,k,2,NULL
1642013099,31ec93054e68774b041ae9b38c49d255,PennController,12,0,ImplauNPZ,NULL,PennController,12,_Trial_,End,1642012705650,After the corrupt politician signed%2C the awareness received unwelcome attention from southern voters.,k,2,NULL
1642013099,31ec93054e68774b041ae9b38c49d255,PennController,26,0,PlauMVRR,NULL,PennController,26,_Trial_,Start,1642012705651,The new chef who was offered the restaurant separated mediocre cooks from gifted ones.,k,23,NULL
1642013099,31ec93054e68774b041ae9b38c49d255,PennController,26,0,PlauMVRR,NULL,Scale,judgment,Choice,6,1642012714037,The new chef who was offered the restaurant separated mediocre cooks from gifted ones.,k,23,NULL
1642013099,31ec93054e68774b041ae9b38c49d255,PennController,26,0,PlauMVRR,NULL,PennController,26,_Trial_,End,1642012714622,The new chef who was offered the restaurant separated mediocre cooks from gifted ones.,k,23,NULL
1642013099,31ec93054e68774b041ae9b38c49d255,PennController,15,0,ImplauNPS,NULL,PennController,15,_Trial_,Start,1642012714622,The operator observed that the seashore started working efficiently all of a sudden.,k,20,NULL
1642013099,31ec93054e68774b041ae9b38c49d255,PennController,15,0,ImplauNPS,NULL,Scale,judgment,Choice,3,1642012725955,The operator observed that the seashore started working efficiently all of a sudden.,k,20,NULL
1642013099,31ec93054e68774b041ae9b38c49d255,PennController,15,0,ImplauNPS,NULL,PennController,15,_Trial_,End,1642012726651,The operator observed that the seashore started working efficiently all of a sudden.,k,20,NULL
1642013099,31ec93054e68774b041ae9b38c49d255,PennController,18,0,PlauNPZ,NULL,PennController,18,_Trial_,Start,1642012726652,Once the recent hire started%2C the job prepared many students for careers in media.,k,11,NULL
1642013099,31ec93054e68774b041ae9b38c49d255,PennController,18,0,PlauNPZ,NULL,Scale,judgment,Choice,3,1642012737803,Once the recent hire started%2C the job prepared many students for careers in media.,k,11,NULL
1642013099,31ec93054e68774b041ae9b38c49d255,PennController,18,0,PlauNPZ,NULL,PennController,18,_Trial_,End,1642012738324,Once the recent hire started%2C the job prepared many students for careers in media.,k,11,NULL
1642013099,31ec93054e68774b041ae9b38c49d255,PennController,13,0,ImplauMVRR,NULL,PennController,13,_Trial_,Start,1642012738325,The basketball player who was handed the stomach created another controversy in the NBA.,k,14,NULL
1642013099,31ec93054e68774b041ae9b38c49d255,PennController,13,0,ImplauMVRR,NULL,Scale,judgment,Choice,2,1642012753823,The basketball player who was handed the stomach created another controversy in the NBA.,k,14,NULL
1642013099,31ec93054e68774b041ae9b38c49d255,PennController,13,0,ImplauMVRR,NULL,PennController,13,_Trial_,End,1642012754323,The basketball player who was handed the stomach created another controversy in the NBA.,k,14,NULL
1642013099,31ec93054e68774b041ae9b38c49d255,PennController,31,0,PluralNPZZ,NULL,PennController,31,_Trial_,Start,1642012754324,After the esteemed reviewer reads%2C the books gain more attention due to his glowing praise.,k,6,NULL
1642013099,31ec93054e68774b041ae9b38c49d255,PennController,31,0,PluralNPZZ,NULL,Scale,judgment,Choice,1,1642012762572,After the esteemed reviewer reads%2C the books gain more attention due to his glowing praise.,k,6,NULL
1642013099,31ec93054e68774b041ae9b38c49d255,PennController,31,0,PluralNPZZ,NULL,PennController,31,_Trial_,End,1642012764030,After the esteemed reviewer reads%2C the books gain more attention due to his glowing praise.,k,6,NULL
1642013099,31ec93054e68774b041ae9b38c49d255,PennController,5,0,ImplauNPZ,NULL,PennController,5,_Trial_,Start,1642012764031,Because the suspect changed%2C the flavor deserved further investigation during the jury discussions.,k,1,NULL
1642013099,31ec93054e68774b041ae9b38c49d255,PennController,5,0,ImplauNPZ,NULL,Scale,judgment,Choice,3,1642012775577,Because the suspect changed%2C the flavor deserved further investigation during the jury discussions.,k,1,NULL
1642013099,31ec93054e68774b041ae9b38c49d255,PennController,5,0,ImplauNPZ,NULL,PennController,5,_Trial_,End,1642012775964,Because the suspect changed%2C the flavor deserved further investigation during the jury discussions.,k,1,NULL
1642013099,31ec93054e68774b041ae9b38c49d255,PennController,10,0,ImplauNPS,NULL,PennController,10,_Trial_,Start,1642012775965,The player revealed that the cookie remained essentially the same as in the original contract.,k,10,NULL
1642013099,31ec93054e68774b041ae9b38c49d255,PennController,10,0,ImplauNPS,NULL,Scale,judgment,Choice,5,1642012786615,The player revealed that the cookie remained essentially the same as in the original contract.,k,10,NULL
1642013099,31ec93054e68774b041ae9b38c49d255,PennController,10,0,ImplauNPS,NULL,PennController,10,_Trial_,End,1642012787558,The player revealed that the cookie remained essentially the same as in the original contract.,k,10,NULL
1642013099,31ec93054e68774b041ae9b38c49d255,PennController,21,0,PlauMVRR,NULL,PennController,21,_Trial_,Start,1642012787559,The little girl who was fed the lamb remained relatively calm despite having asked for beef.,k,16,NULL
1642013099,31ec93054e68774b041ae9b38c49d255,PennController,21,0,PlauMVRR,NULL,Scale,judgment,Choice,7,1642012794919,The little girl who was fed the lamb remained relatively calm despite having asked for beef.,k,16,NULL
1642013099,31ec93054e68774b041ae9b38c49d255,PennController,21,0,PlauMVRR,NULL,PennController,21,_Trial_,End,1642012795496,The little girl who was fed the lamb remained relatively calm despite having asked for beef.,k,16,NULL
1642013099,31ec93054e68774b041ae9b38c49d255,PennController,30,0,PluralNPZZ,NULL,PennController,30,_Trial_,Start,1642012795498,However hard the scientist works%2C his experiments produce smaller amounts of alcohol than expected.,k,24,NULL
1642013099,31ec93054e68774b041ae9b38c49d255,PennController,30,0,PluralNPZZ,NULL,Scale,judgment,Choice,7,1642012801040,However hard the scientist works%2C his experiments produce smaller amounts of alcohol than expected.,k,24,NULL
1642013099,31ec93054e68774b041ae9b38c49d255,PennController,30,0,PluralNPZZ,NULL,PennController,30,_Trial_,End,1642012801910,However hard the scientist works%2C his experiments produce smaller amounts of alcohol than expected.,k,24,NULL
1642013099,31ec93054e68774b041ae9b38c49d255,PennController,8,0,ImplauMVRR,NULL,PennController,8,_Trial_,Start,1642012801910,The mechanic who was brought the crime needed several more hours to fully repair it.,k,8,NULL
1642013099,31ec93054e68774b041ae9b38c49d255,PennController,8,0,ImplauMVRR,NULL,Scale,judgment,Choice,1,1642012809392,The mechanic who was brought the crime needed several more hours to fully repair it.,k,8,NULL
1642013099,31ec93054e68774b041ae9b38c49d255,PennController,8,0,ImplauMVRR,NULL,PennController,8,_Trial_,End,1642012809960,The mechanic who was brought the crime needed several more hours to fully repair it.,k,8,NULL
1642013099,31ec93054e68774b041ae9b38c49d255,PennController,24,0,PlauNPZ,NULL,PennController,24,_Trial_,Start,1642012809961,Once the dancer began%2C the ballet achieved incredible success for a show with a new performer.,k,21,NULL
1642013099,31ec93054e68774b041ae9b38c49d255,PennController,24,0,PlauNPZ,NULL,Scale,judgment,Choice,6,1642012820224,Once the dancer began%2C the ballet achieved incredible success for a show with a new performer.,k,21,NULL
1642013099,31ec93054e68774b041ae9b38c49d255,PennController,24,0,PlauNPZ,NULL,PennController,24,_Trial_,End,1642012820767,Once the dancer began%2C the ballet achieved incredible success for a show with a new performer.,k,21,NULL
1642013099,31ec93054e68774b041ae9b38c49d255,PennController,27,0,PlauNPS,NULL,PennController,27,_Trial_,Start,1642012820768,The apprentice baker discovered that the oven produced smaller cakes because it heated too fast.,k,24,NULL
1642013099,31ec93054e68774b041ae9b38c49d255,PennController,27,0,PlauNPS,NULL,Scale,judgment,Choice,6,1642012827666,The apprentice baker discovered that the oven produced smaller cakes because it heated too fast.,k,24,NULL
1642013099,31ec93054e68774b041ae9b38c49d255,PennController,27,0,PlauNPS,NULL,PennController,27,_Trial_,End,1642012828249,The apprentice baker discovered that the oven produced smaller cakes because it heated too fast.,k,24,NULL
1642013099,31ec93054e68774b041ae9b38c49d255,PennController,14,0,ImplauNPZ,NULL,PennController,14,_Trial_,Start,1642012828250,Before the yoga instructor left%2C the beard demanded immense physical effort from everyone.,k,17,NULL
1642013099,31ec93054e68774b041ae9b38c49d255,PennController,14,0,ImplauNPZ,NULL,Scale,judgment,Choice,1,1642012834793,Before the yoga instructor left%2C the beard demanded immense physical effort from everyone.,k,17,NULL
1642013099,31ec93054e68774b041ae9b38c49d255,PennController,14,0,ImplauNPZ,NULL,PennController,14,_Trial_,End,1642012835570,Before the yoga instructor left%2C the beard demanded immense physical effort from everyone.,k,17,NULL
1642013099,31ec93054e68774b041ae9b38c49d255,PennController,33,0,SingNPZZ,NULL,PennController,33,_Trial_,Start,1642012835570,After the tutor stops%2C the student starts working independently on the questions.,k,20,NULL
1642013099,31ec93054e68774b041ae9b38c49d255,PennController,33,0,SingNPZZ,NULL,Scale,judgment,Choice,7,1642012839729,After the tutor stops%2C the student starts working independently on the questions.,k,20,NULL
1642013099,31ec93054e68774b041ae9b38c49d255,PennController,33,0,SingNPZZ,NULL,PennController,33,_Trial_,End,1642012840652,After the tutor stops%2C the student starts working independently on the questions.,k,20,NULL
1642013099,31ec93054e68774b041ae9b38c49d255,PennController,20,0,PlauNPS,NULL,PennController,20,_Trial_,Start,1642012840653,The engineer maintained that the equipment required constant supervision from senior technicians.,k,15,NULL
1642013099,31ec93054e68774b041ae9b38c49d255,PennController,20,0,PlauNPS,NULL,Scale,judgment,Choice,6,1642012853979,The engineer maintained that the equipment required constant supervision from senior technicians.,k,15,NULL
1642013099,31ec93054e68774b041ae9b38c49d255,PennController,20,0,PlauNPS,NULL,PennController,20,_Trial_,End,1642012854882,The engineer maintained that the equipment required constant supervision from senior technicians.,k,15,NULL
1642013099,31ec93054e68774b041ae9b38c49d255,PennController,29,0,PluralNPZZ,NULL,PennController,29,_Trial_,Start,1642012854883,Unless the dog attacks%2C the cats remain relatively tranquil throughout the day.,k,16,NULL
1642013099,31ec93054e68774b041ae9b38c49d255,PennController,29,0,PluralNPZZ,NULL,Scale,judgment,Choice,7,1642012858678,Unless the dog attacks%2C the cats remain relatively tranquil throughout the day.,k,16,NULL
1642013099,31ec93054e68774b041ae9b38c49d255,PennController,29,0,PluralNPZZ,NULL,PennController,29,_Trial_,End,1642012859311,Unless the dog attacks%2C the cats remain relatively tranquil throughout the day.,k,16,NULL
1642013099,31ec93054e68774b041ae9b38c49d255,PennController,9,0,ImplauMVRR,NULL,PennController,9,_Trial_,Start,1642012859312,The guitarist who was assigned the data failed dramatically because he never practiced enough.,k,9,NULL
1642013099,31ec93054e68774b041ae9b38c49d255,PennController,9,0,ImplauMVRR,NULL,Scale,judgment,Choice,3,1642012866230,The guitarist who was assigned the data failed dramatically because he never practiced enough.,k,9,NULL
1642013099,31ec93054e68774b041ae9b38c49d255,PennController,9,0,ImplauMVRR,NULL,PennController,9,_Trial_,End,1642012867020,The guitarist who was assigned the data failed dramatically because he never practiced enough.,k,9,NULL
1642013099,31ec93054e68774b041ae9b38c49d255,PennController,28,0,PlauNPZ,NULL,PennController,28,_Trial_,Start,1642012867021,After the woman moved%2C the mail disappeared mysteriously from the delivery system.,k,3,NULL
1642013099,31ec93054e68774b041ae9b38c49d255,PennController,28,0,PlauNPZ,NULL,Scale,judgment,Choice,5,1642012872628,After the woman moved%2C the mail disappeared mysteriously from the delivery system.,k,3,NULL
1642013099,31ec93054e68774b041ae9b38c49d255,PennController,28,0,PlauNPZ,NULL,PennController,28,_Trial_,End,1642012873325,After the woman moved%2C the mail disappeared mysteriously from the delivery system.,k,3,NULL
1642013099,31ec93054e68774b041ae9b38c49d255,PennController,22,0,PlauNPS,NULL,PennController,22,_Trial_,Start,1642012873326,The governor noticed that the contract received sweeping support across the entire state.,k,18,NULL
1642013099,31ec93054e68774b041ae9b38c49d255,PennController,22,0,PlauNPS,NULL,Scale,judgment,Choice,6,1642012881261,The governor noticed that the contract received sweeping support across the entire state.,k,18,NULL
1642013099,31ec93054e68774b041ae9b38c49d255,PennController,22,0,PlauNPS,NULL,PennController,22,_Trial_,End,1642012881856,The governor noticed that the contract received sweeping support across the entire state.,k,18,NULL
1642013099,31ec93054e68774b041ae9b38c49d255,PennController,17,0,PlauMVRR,NULL,PennController,17,_Trial_,Start,1642012881857,The technician who was refused the service stopped working almost immediately after the argument.,k,7,NULL
1642013099,31ec93054e68774b041ae9b38c49d255,PennController,17,0,PlauMVRR,NULL,Scale,judgment,Choice,6,1642012890099,The technician who was refused the service stopped working almost immediately after the argument.,k,7,NULL
1642013099,31ec93054e68774b041ae9b38c49d255,PennController,17,0,PlauMVRR,NULL,PennController,17,_Trial_,End,1642012891090,The technician who was refused the service stopped working almost immediately after the argument.,k,7,NULL
1642013099,31ec93054e68774b041ae9b38c49d255,PennController,16,0,ImplauNPS,NULL,PennController,16,_Trial_,Start,1642012891092,The boy found that the city stayed surprisingly happy in the new barn.,k,4,NULL
1642013099,31ec93054e68774b041ae9b38c49d255,PennController,16,0,ImplauNPS,NULL,Scale,judgment,Choice,1,1642012897987,The boy found that the city stayed surprisingly happy in the new barn.,k,4,NULL
1642013099,31ec93054e68774b041ae9b38c49d255,PennController,16,0,ImplauNPS,NULL,PennController,16,_Trial_,End,1642012898749,The boy found that the city stayed surprisingly happy in the new barn.,k,4,NULL
1642013099,31ec93054e68774b041ae9b38c49d255,PennController,7,0,ImplauMVRR,NULL,PennController,7,_Trial_,Start,1642012898750,The professor who was awarded the nap gained more attention from marine biologists.,k,6,NULL
1642013099,31ec93054e68774b041ae9b38c49d255,PennController,7,0,ImplauMVRR,NULL,Scale,judgment,Choice,3,1642012906466,The professor who was awarded the nap gained more attention from marine biologists.,k,6,NULL
1642013099,31ec93054e68774b041ae9b38c49d255,PennController,7,0,ImplauMVRR,NULL,PennController,7,_Trial_,End,1642012908489,The professor who was awarded the nap gained more attention from marine biologists.,k,6,NULL
1642013099,31ec93054e68774b041ae9b38c49d255,PennController,11,0,ImplauNPZ,NULL,PennController,11,_Trial_,Start,1642012908490,While the assistant manager worked%2C the tongue seemed unnecessarily demanding to him.,k,12,NULL
1642013099,31ec93054e68774b041ae9b38c49d255,PennController,11,0,ImplauNPZ,NULL,Scale,judgment,Choice,1,1642012913791,While the assistant manager worked%2C the tongue seemed unnecessarily demanding to him.,k,12,NULL
1642013099,31ec93054e68774b041ae9b38c49d255,PennController,11,0,ImplauNPZ,NULL,PennController,11,_Trial_,End,1642012914529,While the assistant manager worked%2C the tongue seemed unnecessarily demanding to him.,k,12,NULL
1642013099,31ec93054e68774b041ae9b38c49d255,PennController,34,0,SingNPZZ,NULL,PennController,34,_Trial_,Start,1642012914529,Whenever the lawyer leaves%2C his client appears increasingly uncomfortable in the courtroom.,k,5,NULL
1642013099,31ec93054e68774b041ae9b38c49d255,PennController,34,0,SingNPZZ,NULL,Scale,judgment,Choice,6,1642012919815,Whenever the lawyer leaves%2C his client appears increasingly uncomfortable in the courtroom.,k,5,NULL
1642013099,31ec93054e68774b041ae9b38c49d255,PennController,34,0,SingNPZZ,NULL,PennController,34,_Trial_,End,1642012920472,Whenever the lawyer leaves%2C his client appears increasingly uncomfortable in the courtroom.,k,5,NULL
# 13. Comments.
1642013099,31ec93054e68774b041ae9b38c49d255,PennController,35,0,debrief,NULL,PennController,3,_Trial_,Start,1642012920473,NULL
1642013099,31ec93054e68774b041ae9b38c49d255,PennController,35,0,debrief,NULL,Controller-Form,Form,debrief1,They made me think about and imagine the situations they described.,1642013103020,Any addtional parameters were appended as additional columns
1642013099,31ec93054e68774b041ae9b38c49d255,PennController,35,0,debrief,NULL,Controller-Form,Form,debrief2,Some sentences were slightly confusing%2C which caused me to reread some of them multiple times. ,1642013103020,Any addtional parameters were appended as additional columns
1642013099,31ec93054e68774b041ae9b38c49d255,PennController,35,0,debrief,NULL,Controller-Form,Form,debrief3,The most boring thing I would see would be the cars on the street. The most interesting would be any animals.  ,1642013103020,Any addtional parameters were appended as additional columns
1642013099,31ec93054e68774b041ae9b38c49d255,PennController,35,0,debrief,NULL,PennController,3,_Trial_,End,1642013103021,NULL
#
# Results on Wed, 12 Jan 2022 18:47:47 GMT
# USER AGENT: Mozilla/5.0 (Windows NT 10.0; Win64; x64) AppleWebKit/537.36 (KHTML, like Gecko) Chrome/96.0.4664.110 Safari/537.36
# Design number was non-random = 121
#
# Columns below this comment are as follows:
# 1. Results reception time.
# 2. MD5 hash of participant's IP address.
# 3. Controller name.
# 4. Order number of item.
# 5. Inner element number.
# 6. Label.
# 7. Latin Square Group.
# 8. PennElementType.
# 9. PennElementName.
# 10. Parameter.
# 11. Value.
# 12. EventTime.
# 13. Comments.
1642013267,4188660eb7be15fa8f9975532b36f015,PennController,2,0,consent,NULL,PennController,0,_Trial_,Start,1642012801656,NULL
1642013267,4188660eb7be15fa8f9975532b36f015,PennController,2,0,consent,NULL,Controller-Form,Form,prolific,5c3d22a8337ac90001a4bcc4,1642012816048,Any addtional parameters were appended as additional columns
1642013267,4188660eb7be15fa8f9975532b36f015,PennController,2,0,consent,NULL,Controller-Form,Form,consent,yes,1642012816048,Any addtional parameters were appended as additional columns
1642013267,4188660eb7be15fa8f9975532b36f015,PennController,2,0,consent,NULL,PennController,0,_Trial_,End,1642012816054,NULL
1642013267,4188660eb7be15fa8f9975532b36f015,PennController,3,0,intro1,NULL,PennController,1,_Trial_,Start,1642012816061,NULL
1642013267,4188660eb7be15fa8f9975532b36f015,PennController,3,0,intro1,NULL,PennController,1,_Trial_,End,1642012851279,NULL
1642013267,4188660eb7be15fa8f9975532b36f015,PennController,4,0,intro2,NULL,PennController,2,_Trial_,Start,1642012851280,NULL
1642013267,4188660eb7be15fa8f9975532b36f015,PennController,4,0,intro2,NULL,PennController,2,_Trial_,End,1642012877038,NULL
# 13. Sentence.
# 14. List.
# 15. Item.
# 16. Comments.
1642013267,4188660eb7be15fa8f9975532b36f015,PennController,34,0,SingNPZZ,NULL,PennController,34,_Trial_,Start,1642012877047,When the actress begins%2C the scene fails dramatically despite the months she spent rehearsing.,n,9,NULL
1642013267,4188660eb7be15fa8f9975532b36f015,PennController,34,0,SingNPZZ,NULL,Scale,judgment,Choice,5,1642012896151,When the actress begins%2C the scene fails dramatically despite the months she spent rehearsing.,n,9,NULL
1642013267,4188660eb7be15fa8f9975532b36f015,PennController,34,0,SingNPZZ,NULL,PennController,34,_Trial_,End,1642012896594,When the actress begins%2C the scene fails dramatically despite the months she spent rehearsing.,n,9,NULL
1642013267,4188660eb7be15fa8f9975532b36f015,PennController,8,0,ImplauNPS,NULL,PennController,8,_Trial_,Start,1642012896596,The corrupt politician mentioned that the awareness received unwelcome attention from southern voters.,n,2,NULL
1642013267,4188660eb7be15fa8f9975532b36f015,PennController,8,0,ImplauNPS,NULL,Scale,judgment,Choice,3,1642012908027,The corrupt politician mentioned that the awareness received unwelcome attention from southern voters.,n,2,NULL
1642013267,4188660eb7be15fa8f9975532b36f015,PennController,8,0,ImplauNPS,NULL,PennController,8,_Trial_,End,1642012908745,The corrupt politician mentioned that the awareness received unwelcome attention from southern voters.,n,2,NULL
1642013267,4188660eb7be15fa8f9975532b36f015,PennController,31,0,PluralNPZZ,NULL,PennController,31,_Trial_,Start,1642012908746,After the esteemed reviewer reads%2C the books gain more attention due to his glowing praise.,n,6,NULL
1642013267,4188660eb7be15fa8f9975532b36f015,PennController,31,0,PluralNPZZ,NULL,Scale,judgment,Choice,2,1642012918530,After the esteemed reviewer reads%2C the books gain more attention due to his glowing praise.,n,6,NULL
1642013267,4188660eb7be15fa8f9975532b36f015,PennController,31,0,PluralNPZZ,NULL,PennController,31,_Trial_,End,1642012919565,After the esteemed reviewer reads%2C the books gain more attention due to his glowing praise.,n,6,NULL
1642013267,4188660eb7be15fa8f9975532b36f015,PennController,25,0,PlauNPZ,NULL,PennController,25,_Trial_,Start,1642012919568,Before the yoga instructor left%2C the position demanded immense physical effort from everyone.,n,17,NULL
1642013267,4188660eb7be15fa8f9975532b36f015,PennController,25,0,PlauNPZ,NULL,Scale,judgment,Choice,5,1642012924071,Before the yoga instructor left%2C the position demanded immense physical effort from everyone.,n,17,NULL
1642013267,4188660eb7be15fa8f9975532b36f015,PennController,25,0,PlauNPZ,NULL,PennController,25,_Trial_,End,1642012924829,Before the yoga instructor left%2C the position demanded immense physical effort from everyone.,n,17,NULL
1642013267,4188660eb7be15fa8f9975532b36f015,PennController,29,0,PluralNPZZ,NULL,PennController,29,_Trial_,Start,1642012924831,After the worst team loses%2C the tournaments remain essentially the same for the rest of the year.,n,10,NULL
1642013267,4188660eb7be15fa8f9975532b36f015,PennController,29,0,PluralNPZZ,NULL,Scale,judgment,Choice,7,1642012929146,After the worst team loses%2C the tournaments remain essentially the same for the rest of the year.,n,10,NULL
1642013267,4188660eb7be15fa8f9975532b36f015,PennController,29,0,PluralNPZZ,NULL,PennController,29,_Trial_,End,1642012929595,After the worst team loses%2C the tournaments remain essentially the same for the rest of the year.,n,10,NULL
1642013267,4188660eb7be15fa8f9975532b36f015,PennController,15,0,ImplauNPS,NULL,PennController,15,_Trial_,Start,1642012929596,The new chef claimed that the bullet separated mediocre cooks from gifted ones.,n,23,NULL
1642013267,4188660eb7be15fa8f9975532b36f015,PennController,15,0,ImplauNPS,NULL,Scale,judgment,Choice,5,1642012935270,The new chef claimed that the bullet separated mediocre cooks from gifted ones.,n,23,NULL
1642013267,4188660eb7be15fa8f9975532b36f015,PennController,15,0,ImplauNPS,NULL,PennController,15,_Trial_,End,1642012936130,The new chef claimed that the bullet separated mediocre cooks from gifted ones.,n,23,NULL
1642013267,4188660eb7be15fa8f9975532b36f015,PennController,19,0,PlauMVRR,NULL,PennController,19,_Trial_,Start,1642012936132,The technician who was refused the service stopped working almost immediately after the argument.,n,7,NULL
1642013267,4188660eb7be15fa8f9975532b36f015,PennController,19,0,PlauMVRR,NULL,Scale,judgment,Choice,6,1642012945991,The technician who was refused the service stopped working almost immediately after the argument.,n,7,NULL
1642013267,4188660eb7be15fa8f9975532b36f015,PennController,19,0,PlauMVRR,NULL,PennController,19,_Trial_,End,1642012947617,The technician who was refused the service stopped working almost immediately after the argument.,n,7,NULL
1642013267,4188660eb7be15fa8f9975532b36f015,PennController,5,0,ImplauNPZ,NULL,PennController,5,_Trial_,Start,1642012947619,Because the suspect changed%2C the flavor deserved further investigation during the jury discussions.,n,1,NULL
1642013267,4188660eb7be15fa8f9975532b36f015,PennController,5,0,ImplauNPZ,NULL,Scale,judgment,Choice,7,1642012953384,Because the suspect changed%2C the flavor deserved further investigation during the jury discussions.,n,1,NULL
1642013267,4188660eb7be15fa8f9975532b36f015,PennController,5,0,ImplauNPZ,NULL,PennController,5,_Trial_,End,1642012954493,Because the suspect changed%2C the flavor deserved further investigation during the jury discussions.,n,1,NULL
1642013267,4188660eb7be15fa8f9975532b36f015,PennController,21,0,PlauNPS,NULL,PennController,21,_Trial_,Start,1642012954494,The player revealed that the bonus remained essentially the same as in the original contract.,n,10,NULL
1642013267,4188660eb7be15fa8f9975532b36f015,PennController,21,0,PlauNPS,NULL,Scale,judgment,Choice,7,1642012962612,The player revealed that the bonus remained essentially the same as in the original contract.,n,10,NULL
1642013267,4188660eb7be15fa8f9975532b36f015,PennController,21,0,PlauNPS,NULL,PennController,21,_Trial_,End,1642012963403,The player revealed that the bonus remained essentially the same as in the original contract.,n,10,NULL
1642013267,4188660eb7be15fa8f9975532b36f015,PennController,23,0,PlauNPZ,NULL,PennController,23,_Trial_,Start,1642012963404,After the engineer moved%2C the equipment required constant supervision from senior technicians.,n,15,NULL
1642013267,4188660eb7be15fa8f9975532b36f015,PennController,23,0,PlauNPZ,NULL,Scale,judgment,Choice,7,1642012967913,After the engineer moved%2C the equipment required constant supervision from senior technicians.,n,15,NULL
1642013267,4188660eb7be15fa8f9975532b36f015,PennController,23,0,PlauNPZ,NULL,PennController,23,_Trial_,End,1642012968779,After the engineer moved%2C the equipment required constant supervision from senior technicians.,n,15,NULL
1642013267,4188660eb7be15fa8f9975532b36f015,PennController,20,0,PlauNPS,NULL,PennController,20,_Trial_,Start,1642012968779,The mechanic observed that the truck needed several more hours to be repaired.,n,8,NULL
1642013267,4188660eb7be15fa8f9975532b36f015,PennController,20,0,PlauNPS,NULL,Scale,judgment,Choice,7,1642012972974,The mechanic observed that the truck needed several more hours to be repaired.,n,8,NULL
1642013267,4188660eb7be15fa8f9975532b36f015,PennController,20,0,PlauNPS,NULL,PennController,20,_Trial_,End,1642012973700,The mechanic observed that the truck needed several more hours to be repaired.,n,8,NULL
1642013267,4188660eb7be15fa8f9975532b36f015,PennController,11,0,ImplauMVRR,NULL,PennController,11,_Trial_,Start,1642012973701,The basketball player who was handed the stomach created another controversy in the NBA.,n,14,NULL
1642013267,4188660eb7be15fa8f9975532b36f015,PennController,11,0,ImplauMVRR,NULL,Scale,judgment,Choice,5,1642012979234,The basketball player who was handed the stomach created another controversy in the NBA.,n,14,NULL
1642013267,4188660eb7be15fa8f9975532b36f015,PennController,11,0,ImplauMVRR,NULL,PennController,11,_Trial_,End,1642012980855,The basketball player who was handed the stomach created another controversy in the NBA.,n,14,NULL
1642013267,4188660eb7be15fa8f9975532b36f015,PennController,7,0,ImplauNPS,NULL,PennController,7,_Trial_,Start,1642012980856,The guitarist knew that the data failed dramatically because of the tensions within the band.,n,9,NULL
1642013267,4188660eb7be15fa8f9975532b36f015,PennController,7,0,ImplauNPS,NULL,Scale,judgment,Choice,6,1642012989357,The guitarist knew that the data failed dramatically because of the tensions within the band.,n,9,NULL
1642013267,4188660eb7be15fa8f9975532b36f015,PennController,7,0,ImplauNPS,NULL,PennController,7,_Trial_,End,1642012989902,The guitarist knew that the data failed dramatically because of the tensions within the band.,n,9,NULL
1642013267,4188660eb7be15fa8f9975532b36f015,PennController,10,0,ImplauMVRR,NULL,PennController,10,_Trial_,Start,1642012989904,The assistant manager who was assigned the tongue seemed unnecessarily demanding to new staff.,n,12,NULL
1642013267,4188660eb7be15fa8f9975532b36f015,PennController,10,0,ImplauMVRR,NULL,Scale,judgment,Choice,4,1642012998139,The assistant manager who was assigned the tongue seemed unnecessarily demanding to new staff.,n,12,NULL
1642013267,4188660eb7be15fa8f9975532b36f015,PennController,10,0,ImplauMVRR,NULL,PennController,10,_Trial_,End,1642012998585,The assistant manager who was assigned the tongue seemed unnecessarily demanding to new staff.,n,12,NULL
1642013267,4188660eb7be15fa8f9975532b36f015,PennController,17,0,PlauNPZ,NULL,PennController,17,_Trial_,Start,1642012998586,Although the boy attacked%2C the chicken stayed surprisingly happy as if nothing happened.,n,4,NULL
1642013267,4188660eb7be15fa8f9975532b36f015,PennController,17,0,PlauNPZ,NULL,Scale,judgment,Choice,7,1642013005334,Although the boy attacked%2C the chicken stayed surprisingly happy as if nothing happened.,n,4,NULL
1642013267,4188660eb7be15fa8f9975532b36f015,PennController,17,0,PlauNPZ,NULL,PennController,17,_Trial_,End,1642013006224,Although the boy attacked%2C the chicken stayed surprisingly happy as if nothing happened.,n,4,NULL
1642013267,4188660eb7be15fa8f9975532b36f015,PennController,32,0,SingNPZZ,NULL,PennController,32,_Trial_,Start,1642013006225,Even if the mother calls%2C her boy continues causing problems with the other kids on the playground.,n,19,NULL
1642013267,4188660eb7be15fa8f9975532b36f015,PennController,32,0,SingNPZZ,NULL,Scale,judgment,Choice,7,1642013010619,Even if the mother calls%2C her boy continues causing problems with the other kids on the playground.,n,19,NULL
1642013267,4188660eb7be15fa8f9975532b36f015,PennController,32,0,SingNPZZ,NULL,PennController,32,_Trial_,End,1642013011378,Even if the mother calls%2C her boy continues causing problems with the other kids on the playground.,n,19,NULL
1642013267,4188660eb7be15fa8f9975532b36f015,PennController,14,0,ImplauNPZ,NULL,PennController,14,_Trial_,Start,1642013011380,Once the dancer began%2C the virus achieved incredible success for a show with a new performer.,n,21,NULL
1642013267,4188660eb7be15fa8f9975532b36f015,PennController,14,0,ImplauNPZ,NULL,Scale,judgment,Choice,3,1642013017499,Once the dancer began%2C the virus achieved incredible success for a show with a new performer.,n,21,NULL
1642013267,4188660eb7be15fa8f9975532b36f015,PennController,14,0,ImplauNPZ,NULL,PennController,14,_Trial_,End,1642013018355,Once the dancer began%2C the virus achieved incredible success for a show with a new performer.,n,21,NULL
1642013267,4188660eb7be15fa8f9975532b36f015,PennController,27,0,PlauMVRR,NULL,PennController,27,_Trial_,Start,1642013018356,The contestant who was paid the money became unavailable and suddenly terminated his contract.,n,22,NULL
1642013267,4188660eb7be15fa8f9975532b36f015,PennController,27,0,PlauMVRR,NULL,Scale,judgment,Choice,7,1642013025756,The contestant who was paid the money became unavailable and suddenly terminated his contract.,n,22,NULL
1642013267,4188660eb7be15fa8f9975532b36f015,PennController,27,0,PlauMVRR,NULL,PennController,27,_Trial_,End,1642013026368,The contestant who was paid the money became unavailable and suddenly terminated his contract.,n,22,NULL
1642013267,4188660eb7be15fa8f9975532b36f015,PennController,26,0,PlauNPS,NULL,PennController,26,_Trial_,Start,1642013026369,The patient reported that the treatment continued causing uncomfortable side effects like nausea.,n,19,NULL
1642013267,4188660eb7be15fa8f9975532b36f015,PennController,26,0,PlauNPS,NULL,Scale,judgment,Choice,7,1642013036050,The patient reported that the treatment continued causing uncomfortable side effects like nausea.,n,19,NULL
1642013267,4188660eb7be15fa8f9975532b36f015,PennController,26,0,PlauNPS,NULL,PennController,26,_Trial_,End,1642013036893,The patient reported that the treatment continued causing uncomfortable side effects like nausea.,n,19,NULL
1642013267,4188660eb7be15fa8f9975532b36f015,PennController,33,0,SingNPZZ,NULL,PennController,33,_Trial_,Start,1642013036893,After the producer starts%2C the audition separates mediocre actors from talented ones.,n,23,NULL
1642013267,4188660eb7be15fa8f9975532b36f015,PennController,33,0,SingNPZZ,NULL,Scale,judgment,Choice,4,1642013114602,After the producer starts%2C the audition separates mediocre actors from talented ones.,n,23,NULL
1642013267,4188660eb7be15fa8f9975532b36f015,PennController,33,0,SingNPZZ,NULL,PennController,33,_Trial_,End,1642013116886,After the producer starts%2C the audition separates mediocre actors from talented ones.,n,23,NULL
1642013267,4188660eb7be15fa8f9975532b36f015,PennController,18,0,PlauMVRR,NULL,PennController,18,_Trial_,Start,1642013116889,The professor who was awarded the grant gained more attention from marine biologists.,n,6,NULL
1642013267,4188660eb7be15fa8f9975532b36f015,PennController,18,0,PlauMVRR,NULL,Scale,judgment,Choice,6,1642013124057,The professor who was awarded the grant gained more attention from marine biologists.,n,6,NULL
1642013267,4188660eb7be15fa8f9975532b36f015,PennController,18,0,PlauMVRR,NULL,PennController,18,_Trial_,End,1642013124801,The professor who was awarded the grant gained more attention from marine biologists.,n,6,NULL
1642013267,4188660eb7be15fa8f9975532b36f015,PennController,12,0,ImplauNPS,NULL,PennController,12,_Trial_,Start,1642013124804,The governor noticed that the tail received sweeping support across the entire state.,n,18,NULL
1642013267,4188660eb7be15fa8f9975532b36f015,PennController,12,0,ImplauNPS,NULL,Scale,judgment,Choice,5,1642013129487,The governor noticed that the tail received sweeping support across the entire state.,n,18,NULL
1642013267,4188660eb7be15fa8f9975532b36f015,PennController,12,0,ImplauNPS,NULL,PennController,12,_Trial_,End,1642013130478,The governor noticed that the tail received sweeping support across the entire state.,n,18,NULL
1642013267,4188660eb7be15fa8f9975532b36f015,PennController,16,0,ImplauMVRR,NULL,PennController,16,_Trial_,Start,1642013130479,The woman who was brought the sauce disappeared mysteriously after reading the bad news in it.,n,3,NULL
1642013267,4188660eb7be15fa8f9975532b36f015,PennController,16,0,ImplauMVRR,NULL,Scale,judgment,Choice,4,1642013138212,The woman who was brought the sauce disappeared mysteriously after reading the bad news in it.,n,3,NULL
1642013267,4188660eb7be15fa8f9975532b36f015,PennController,16,0,ImplauMVRR,NULL,PennController,16,_Trial_,End,1642013139075,The woman who was brought the sauce disappeared mysteriously after reading the bad news in it.,n,3,NULL
1642013267,4188660eb7be15fa8f9975532b36f015,PennController,30,0,PluralNPZZ,NULL,PennController,30,_Trial_,Start,1642013139077,After the diplomat signs%2C the agreements create another border conflict as a side effect.,n,14,NULL
1642013267,4188660eb7be15fa8f9975532b36f015,PennController,30,0,PluralNPZZ,NULL,Scale,judgment,Choice,5,1642013146403,After the diplomat signs%2C the agreements create another border conflict as a side effect.,n,14,NULL
1642013267,4188660eb7be15fa8f9975532b36f015,PennController,30,0,PluralNPZZ,NULL,PennController,30,_Trial_,End,1642013147086,After the diplomat signs%2C the agreements create another border conflict as a side effect.,n,14,NULL
1642013267,4188660eb7be15fa8f9975532b36f015,PennController,9,0,ImplauNPZ,NULL,PennController,9,_Trial_,Start,1642013147086,Once the recent hire started%2C the hair prepared many students for careers in media.,n,11,NULL
1642013267,4188660eb7be15fa8f9975532b36f015,PennController,9,0,ImplauNPZ,NULL,Scale,judgment,Choice,3,1642013152505,Once the recent hire started%2C the hair prepared many students for careers in media.,n,11,NULL
1642013267,4188660eb7be15fa8f9975532b36f015,PennController,9,0,ImplauNPZ,NULL,PennController,9,_Trial_,End,1642013153314,Once the recent hire started%2C the hair prepared many students for careers in media.,n,11,NULL
1642013267,4188660eb7be15fa8f9975532b36f015,PennController,6,0,ImplauMVRR,NULL,PennController,6,_Trial_,Start,1642013153317,The new doctor who was offered the melon appeared increasingly likely to succeed in her career.,n,5,NULL
1642013267,4188660eb7be15fa8f9975532b36f015,PennController,6,0,ImplauMVRR,NULL,Scale,judgment,Choice,5,1642013160018,The new doctor who was offered the melon appeared increasingly likely to succeed in her career.,n,5,NULL
1642013267,4188660eb7be15fa8f9975532b36f015,PennController,6,0,ImplauMVRR,NULL,PennController,6,_Trial_,End,1642013160892,The new doctor who was offered the melon appeared increasingly likely to succeed in her career.,n,5,NULL
1642013267,4188660eb7be15fa8f9975532b36f015,PennController,28,0,PlauNPZ,NULL,PennController,28,_Trial_,Start,1642013160895,When the apprentice baker worked%2C the oven produced smaller cakes because he lacked experience.,n,24,NULL
1642013267,4188660eb7be15fa8f9975532b36f015,PennController,28,0,PlauNPZ,NULL,Scale,judgment,Choice,7,1642013166749,When the apprentice baker worked%2C the oven produced smaller cakes because he lacked experience.,n,24,NULL
1642013267,4188660eb7be15fa8f9975532b36f015,PennController,28,0,PlauNPZ,NULL,PennController,28,_Trial_,End,1642013167868,When the apprentice baker worked%2C the oven produced smaller cakes because he lacked experience.,n,24,NULL
1642013267,4188660eb7be15fa8f9975532b36f015,PennController,24,0,PlauNPS,NULL,PennController,24,_Trial_,Start,1642013167871,The little girl found that the lamb remained relatively calm despite the absence of its mother.,n,16,NULL
1642013267,4188660eb7be15fa8f9975532b36f015,PennController,24,0,PlauNPS,NULL,Scale,judgment,Choice,7,1642013173535,The little girl found that the lamb remained relatively calm despite the absence of its mother.,n,16,NULL
1642013267,4188660eb7be15fa8f9975532b36f015,PennController,24,0,PlauNPS,NULL,PennController,24,_Trial_,End,1642013174587,The little girl found that the lamb remained relatively calm despite the absence of its mother.,n,16,NULL
1642013267,4188660eb7be15fa8f9975532b36f015,PennController,22,0,PlauMVRR,NULL,PennController,22,_Trial_,Start,1642013174590,The mayor who was sent the document provided sufficient evidence that it was simply blackmail.,n,13,NULL
1642013267,4188660eb7be15fa8f9975532b36f015,PennController,22,0,PlauMVRR,NULL,Scale,judgment,Choice,7,1642013185342,The mayor who was sent the document provided sufficient evidence that it was simply blackmail.,n,13,NULL
1642013267,4188660eb7be15fa8f9975532b36f015,PennController,22,0,PlauMVRR,NULL,PennController,22,_Trial_,End,1642013186287,The mayor who was sent the document provided sufficient evidence that it was simply blackmail.,n,13,NULL
1642013267,4188660eb7be15fa8f9975532b36f015,PennController,13,0,ImplauNPZ,NULL,PennController,13,_Trial_,Start,1642013186290,Once the operator stopped%2C the seashore started working efficiently without any supervision.,n,20,NULL
1642013267,4188660eb7be15fa8f9975532b36f015,PennController,13,0,ImplauNPZ,NULL,Scale,judgment,Choice,7,1642013191423,Once the operator stopped%2C the seashore started working efficiently without any supervision.,n,20,NULL
1642013267,4188660eb7be15fa8f9975532b36f015,PennController,13,0,ImplauNPZ,NULL,PennController,13,_Trial_,End,1642013192647,Once the operator stopped%2C the seashore started working efficiently without any supervision.,n,20,NULL
# 13. Comments.
1642013267,4188660eb7be15fa8f9975532b36f015,PennController,35,0,debrief,NULL,PennController,3,_Trial_,Start,1642013192650,NULL
1642013267,4188660eb7be15fa8f9975532b36f015,PennController,35,0,debrief,NULL,Controller-Form,Form,debrief1,The sentence structure was plausible but the content was nonsensical,1642013267290,Any addtional parameters were appended as additional columns
1642013267,4188660eb7be15fa8f9975532b36f015,PennController,35,0,debrief,NULL,Controller-Form,Form,debrief2,no,1642013267290,Any addtional parameters were appended as additional columns
1642013267,4188660eb7be15fa8f9975532b36f015,PennController,35,0,debrief,NULL,Controller-Form,Form,debrief3,It would be a VERY long drive. I would see lots of boring fields but also some beautiful midwest countryside,1642013267290,Any addtional parameters were appended as additional columns
1642013267,4188660eb7be15fa8f9975532b36f015,PennController,35,0,debrief,NULL,PennController,3,_Trial_,End,1642013267292,NULL
#
# Results on Wed, 12 Jan 2022 18:50:39 GMT
# USER AGENT: Mozilla/5.0 (Windows NT 10.0; Win64; x64) AppleWebKit/537.36 (KHTML, like Gecko) Chrome/97.0.4692.71 Safari/537.36
# Design number was non-random = 123
#
# Columns below this comment are as follows:
# 1. Results reception time.
# 2. MD5 hash of participant's IP address.
# 3. Controller name.
# 4. Order number of item.
# 5. Inner element number.
# 6. Label.
# 7. Latin Square Group.
# 8. PennElementType.
# 9. PennElementName.
# 10. Parameter.
# 11. Value.
# 12. EventTime.
# 13. Comments.
1642013439,d62908c163e637e547074b4a8ef8b2c3,PennController,2,0,consent,NULL,PennController,0,_Trial_,Start,1642012855983,NULL
1642013439,d62908c163e637e547074b4a8ef8b2c3,PennController,2,0,consent,NULL,Controller-Form,Form,prolific,6008eb686fb79a5a9ccb160e,1642012878061,Any addtional parameters were appended as additional columns
1642013439,d62908c163e637e547074b4a8ef8b2c3,PennController,2,0,consent,NULL,Controller-Form,Form,consent,yes,1642012878061,Any addtional parameters were appended as additional columns
1642013439,d62908c163e637e547074b4a8ef8b2c3,PennController,2,0,consent,NULL,PennController,0,_Trial_,End,1642012878062,NULL
1642013439,d62908c163e637e547074b4a8ef8b2c3,PennController,3,0,intro1,NULL,PennController,1,_Trial_,Start,1642012878064,NULL
1642013439,d62908c163e637e547074b4a8ef8b2c3,PennController,3,0,intro1,NULL,PennController,1,_Trial_,End,1642012915952,NULL
1642013439,d62908c163e637e547074b4a8ef8b2c3,PennController,4,0,intro2,NULL,PennController,2,_Trial_,Start,1642012915954,NULL
1642013439,d62908c163e637e547074b4a8ef8b2c3,PennController,4,0,intro2,NULL,PennController,2,_Trial_,End,1642012938076,NULL
# 13. Sentence.
# 14. List.
# 15. Item.
# 16. Comments.
1642013439,d62908c163e637e547074b4a8ef8b2c3,PennController,18,0,PlauNPS,NULL,PennController,18,_Trial_,Start,1642012938077,The new doctor demonstrated that the operation appeared increasingly likely to succeed.,p,5,NULL
1642013439,d62908c163e637e547074b4a8ef8b2c3,PennController,18,0,PlauNPS,NULL,Scale,judgment,Choice,6,1642012962224,The new doctor demonstrated that the operation appeared increasingly likely to succeed.,p,5,NULL
1642013439,d62908c163e637e547074b4a8ef8b2c3,PennController,18,0,PlauNPS,NULL,PennController,18,_Trial_,End,1642012966453,The new doctor demonstrated that the operation appeared increasingly likely to succeed.,p,5,NULL
1642013439,d62908c163e637e547074b4a8ef8b2c3,PennController,17,0,PlauNPZ,NULL,PennController,17,_Trial_,Start,1642012966454,Because the suspect changed%2C the file deserved further investigation during the jury discussions.,p,1,NULL
1642013439,d62908c163e637e547074b4a8ef8b2c3,PennController,17,0,PlauNPZ,NULL,Scale,judgment,Choice,7,1642012974387,Because the suspect changed%2C the file deserved further investigation during the jury discussions.,p,1,NULL
1642013439,d62908c163e637e547074b4a8ef8b2c3,PennController,17,0,PlauNPZ,NULL,PennController,17,_Trial_,End,1642012975074,Because the suspect changed%2C the file deserved further investigation during the jury discussions.,p,1,NULL
1642013439,d62908c163e637e547074b4a8ef8b2c3,PennController,16,0,ImplauMVRR,NULL,PennController,16,_Trial_,Start,1642012975074,The apprentice baker who was assigned the creek produced smaller cakes because he lacked experience.,p,24,NULL
1642013439,d62908c163e637e547074b4a8ef8b2c3,PennController,16,0,ImplauMVRR,NULL,Scale,judgment,Choice,5,1642012990053,The apprentice baker who was assigned the creek produced smaller cakes because he lacked experience.,p,24,NULL
1642013439,d62908c163e637e547074b4a8ef8b2c3,PennController,16,0,ImplauMVRR,NULL,PennController,16,_Trial_,End,1642012990899,The apprentice baker who was assigned the creek produced smaller cakes because he lacked experience.,p,24,NULL
1642013439,d62908c163e637e547074b4a8ef8b2c3,PennController,33,0,SingNPZZ,NULL,PennController,33,_Trial_,Start,1642012990900,Until the lead architect leaves%2C the project demands immense patience from the engineers.,p,17,NULL
1642013439,d62908c163e637e547074b4a8ef8b2c3,PennController,33,0,SingNPZZ,NULL,Scale,judgment,Choice,7,1642013000132,Until the lead architect leaves%2C the project demands immense patience from the engineers.,p,17,NULL
1642013439,d62908c163e637e547074b4a8ef8b2c3,PennController,33,0,SingNPZZ,NULL,PennController,33,_Trial_,End,1642013001151,Until the lead architect leaves%2C the project demands immense patience from the engineers.,p,17,NULL
1642013439,d62908c163e637e547074b4a8ef8b2c3,PennController,6,0,ImplauMVRR,NULL,PennController,6,_Trial_,Start,1642013001151,The professor who was awarded the nap gained more attention from marine biologists.,p,6,NULL
1642013439,d62908c163e637e547074b4a8ef8b2c3,PennController,6,0,ImplauMVRR,NULL,Scale,judgment,Choice,2,1642013019677,The professor who was awarded the nap gained more attention from marine biologists.,p,6,NULL
1642013439,d62908c163e637e547074b4a8ef8b2c3,PennController,6,0,ImplauMVRR,NULL,PennController,6,_Trial_,End,1642013021189,The professor who was awarded the nap gained more attention from marine biologists.,p,6,NULL
1642013439,d62908c163e637e547074b4a8ef8b2c3,PennController,28,0,PlauNPS,NULL,PennController,28,_Trial_,Start,1642013021190,The new chef claimed that the restaurant separated mediocre cooks from gifted ones.,p,23,NULL
1642013439,d62908c163e637e547074b4a8ef8b2c3,PennController,28,0,PlauNPS,NULL,Scale,judgment,Choice,7,1642013027380,The new chef claimed that the restaurant separated mediocre cooks from gifted ones.,p,23,NULL
1642013439,d62908c163e637e547074b4a8ef8b2c3,PennController,28,0,PlauNPS,NULL,PennController,28,_Trial_,End,1642013028147,The new chef claimed that the restaurant separated mediocre cooks from gifted ones.,p,23,NULL
1642013439,d62908c163e637e547074b4a8ef8b2c3,PennController,9,0,ImplauNPZ,NULL,PennController,9,_Trial_,Start,1642013028148,Although the player lost%2C the cookie remained essentially the same as in the original contract.,p,10,NULL
1642013439,d62908c163e637e547074b4a8ef8b2c3,PennController,9,0,ImplauNPZ,NULL,Scale,judgment,Choice,5,1642013036679,Although the player lost%2C the cookie remained essentially the same as in the original contract.,p,10,NULL
1642013439,d62908c163e637e547074b4a8ef8b2c3,PennController,9,0,ImplauNPZ,NULL,PennController,9,_Trial_,End,1642013037470,Although the player lost%2C the cookie remained essentially the same as in the original contract.,p,10,NULL
1642013439,d62908c163e637e547074b4a8ef8b2c3,PennController,19,0,PlauNPS,NULL,PennController,19,_Trial_,Start,1642013037470,The mechanic observed that the truck needed several more hours to be repaired.,p,8,NULL
1642013439,d62908c163e637e547074b4a8ef8b2c3,PennController,19,0,PlauNPS,NULL,Scale,judgment,Choice,5,1642013049956,The mechanic observed that the truck needed several more hours to be repaired.,p,8,NULL
1642013439,d62908c163e637e547074b4a8ef8b2c3,PennController,19,0,PlauNPS,NULL,PennController,19,_Trial_,End,1642013050654,The mechanic observed that the truck needed several more hours to be repaired.,p,8,NULL
1642013439,d62908c163e637e547074b4a8ef8b2c3,PennController,34,0,SingNPZZ,NULL,PennController,34,_Trial_,Start,1642013050655,After the producer starts%2C the audition separates mediocre actors from talented ones.,p,23,NULL
1642013439,d62908c163e637e547074b4a8ef8b2c3,PennController,34,0,SingNPZZ,NULL,Scale,judgment,Choice,3,1642013057590,After the producer starts%2C the audition separates mediocre actors from talented ones.,p,23,NULL
1642013439,d62908c163e637e547074b4a8ef8b2c3,PennController,34,0,SingNPZZ,NULL,PennController,34,_Trial_,End,1642013061919,After the producer starts%2C the audition separates mediocre actors from talented ones.,p,23,NULL
1642013439,d62908c163e637e547074b4a8ef8b2c3,PennController,11,0,ImplauNPS,NULL,PennController,11,_Trial_,Start,1642013061920,The assistant manager discovered that the tongue seemed unnecessarily demanding for new staff.,p,12,NULL
1642013439,d62908c163e637e547074b4a8ef8b2c3,PennController,11,0,ImplauNPS,NULL,Scale,judgment,Choice,1,1642013067004,The assistant manager discovered that the tongue seemed unnecessarily demanding for new staff.,p,12,NULL
1642013439,d62908c163e637e547074b4a8ef8b2c3,PennController,11,0,ImplauNPS,NULL,PennController,11,_Trial_,End,1642013067787,The assistant manager discovered that the tongue seemed unnecessarily demanding for new staff.,p,12,NULL
